accx,accy,accz,activity,magnitude,accx_norm,accy_norm,accz_norm,xy_magnitude,z_dominance
9.223051305769667,-3.3554234350567227,4.426749471602866,0,10.766598938463515,0.8566355409432456,-0.3116511959101144,0.41115578809092346,9.814455757574509,0.41115578809092346
8.227049347843735,-2.514271887572047,3.6749942786471896,0,9.354757455144453,0.8794508449088054,-0.2687693293629303,0.39284762820079355,8.60266842883597,0.39284762820079355
8.310144496047903,-3.4147211681863086,2.9380070608098277,0,9.452550327346758,0.8791431104054732,-0.3612486630520579,0.3108163362336203,8.984365431217439,0.3108163362336203
8.00508467521295,-4.410880530569355,3.2537437513937784,0,9.701757372353685,0.8251169729336248,-0.4546475820080479,0.33537673913240806,9.139871318146938,0.33537673913240806
7.491157476738565,-3.357944559791191,2.186704730429917,0,8.49558176854369,0.881770981767938,-0.39525775294454124,0.2573931709452267,8.209338098039778,0.2573931709452267
10.436176440159624,-4.143169428758819,3.4486281211625256,0,11.74617671941034,0.8884743256853982,-0.35272493575822916,0.2935957974703149,11.22851867369621,0.2935957974703149
7.997156284181856,-3.720034563642309,3.3203931463756478,0,9.424339575525766,0.8485641057490981,-0.39472628652971425,0.35232104273899845,8.820043411929602,0.35232104273899845
7.722874086647769,-3.416496797488078,4.029899152102836,0,9.357100069016097,0.8253490963744532,-0.36512346477954516,0.4306782146582922,8.444834783787183,0.4306782146582922
8.101492771482283,-3.0059396221331753,2.7937566035374823,0,9.081571124981574,0.8920805287971271,-0.33099334694020516,0.3076292158140369,8.641172266439884,0.3076292158140369
7.938954844590013,-4.195514440840695,3.616382776786196,0,9.680267033299128,0.8201173394577671,-0.433408957253819,0.3735829563736423,8.97938446931314,0.3735829563736423
9.691463643161441,-3.861261133432429,3.6383783874343636,0,11.048601829074364,0.8771665223429793,-0.34947961680287287,0.32930668004163033,10.432344179870405,0.32930668004163033
6.370027530457575,-2.895062979636756,3.1831410610980218,0,7.687068843824604,0.8286679435133364,-0.37661468089524147,0.4140903543039287,6.997045118823423,0.4140903543039287
8.212070718960556,-3.4385923645487884,3.394359965213968,0,9.528048200769659,0.8618838345399218,-0.36089157948120215,0.3562492436740378,8.902922157513373,0.3562492436740378
8.075606037208768,-2.560962967949696,3.5303687972760334,0,9.178096100836635,0.879878130331696,-0.27902987066307244,0.38465153976261157,8.471950436080963,0.38465153976261157
7.404635444839781,-2.827472514063863,3.469460740989602,0,8.652189591197846,0.8558105860709244,-0.32679271348149175,0.4009922233464691,7.926110451461311,0.4009922233464691
7.933452546748098,-3.7311977545315163,2.5678055734452085,0,9.13537801395986,0.8684317753052925,-0.40843386544375465,0.28108366939182156,8.767069407443111,0.28108366939182156
10.379967572471331,-3.8774804856635217,4.328590033744308,0,11.896019225038614,0.8725580697300561,-0.32594773195240323,0.36386878264567174,11.080549703072398,0.36386878264567174
8.794403138094035,-3.4291908460913465,4.365138391264979,0,10.399774497032631,0.845634022218784,-0.3297370387280799,0.4197339463957112,9.439326057205298,0.4197339463957112
9.383705606339342,-4.71561606703888,3.803704859971682,0,11.169562948474386,0.8401139462328767,-0.4221844747903024,0.3405419601033913,10.501950571115808,0.3405419601033913
8.611268454045526,-3.4229734187726257,2.4618387324371556,0,9.588083299481255,0.8981219900865298,-0.3570028870063967,0.25676025703389005,9.266644021071683,0.25676025703389005
8.54145918524722,-2.5723692786045094,3.039551441153152,0,9.424037440617932,0.9063481802855782,-0.27295830421020056,0.3225317662738243,8.920404067011336,0.3225317662738243
7.3482175193015795,-2.551183642546268,3.161784015311037,0,8.396530048087882,0.8751493149214619,-0.3038378506282178,0.37655841129646894,7.778485629540387,0.37655841129646894
8.217296725161004,-3.1035094439613564,3.624348430455912,0,9.502191214843412,0.8647791377134919,-0.3266098706910203,0.381422384427952,8.783833806379711,0.381422384427952
7.573337305684079,-3.2596089312176812,2.3201126212608085,0,8.565244357604398,0.8841939575209337,-0.3805622811360582,0.2708752400275616,8.24502809759556,0.2708752400275616
9.162505032982695,-3.5736816118596884,3.4453045789234813,0,10.42078799246623,0.8792526092659002,-0.34293775235071494,0.3306184312946664,9.83476988761696,0.3306184312946664
6.601545413689036,-2.868536702789749,2.2857534495906506,0,7.552057567085025,0.87413865096332,-0.37983512139685116,0.3026663169985495,7.197840277767396,0.3026663169985495
8.640665619263936,-2.3982117563701424,3.4158494833907405,0,9.595861069518596,0.9004575573432536,-0.24992147541486398,0.3559711274104666,8.967302937467975,0.3559711274104666
8.944722412400896,-4.515813617940022,3.5296064369293254,0,10.62350004784169,0.8419750903298711,-0.4250777613407619,0.33224515659002735,10.020011560216858,0.33224515659002735
9.957606933988078,-3.551260569571279,3.5926756756358373,0,11.16569326083717,0.8918037332185755,-0.3180510593128202,0.3217601981094069,10.571915033937758,0.3217601981094069
8.018490165917308,-2.8349044206621428,3.769290254184144,0,9.302710176904895,0.8619520562754047,-0.3047396260608157,0.40518195047523503,8.504873168672319,0.40518195047523503
9.219272438192156,-3.129038548998657,3.1149004397904188,0,10.221960246476002,0.9019084613805342,-0.306109442176454,0.30472633082918454,9.735803332582739,0.30472633082918454
10.504342752339598,-4.220835235524515,3.428208456199342,0,11.82832532369783,0.8880667774071399,-0.3568413211520442,0.289830416595914,11.320630139001748,0.289830416595914
8.525384324871942,-4.250659362719404,3.4963538252971706,0,10.147648642730811,0.8401339684715073,-0.418881212029777,0.34454817548317035,9.526294290260317,0.34454817548317035
7.50665524217109,-3.338234442525745,3.642510504469671,0,8.986743842641324,0.8353031279864302,-0.3714620669041561,0.4053203883687296,8.215453859530822,0.4053203883687296
7.470806470719895,-2.615090063470345,2.3948908269095246,0,8.269652195577937,0.9034003237421264,-0.3162273335834755,0.28959994571357595,7.915279234683485,0.28959994571357595
9.596484055240005,-4.344714516892786,3.6197841408556175,0,11.138756110184135,0.8615400104205501,-0.3900538331134143,0.32497202605469194,10.534184850085676,0.32497202605469194
9.375882349837038,-4.176101338751071,2.883828471923011,0,10.661306621844155,0.8794308880139151,-0.3917063345870362,0.2704948440385609,10.26386828780963,0.2704948440385609
9.473400249755871,-3.566978625024573,3.85136657339248,0,10.830589701678377,0.8746892376772256,-0.3293429742308317,0.35560081948221595,10.122679922009626,0.35560081948221595
7.881869958099028,-2.9283328676301195,2.705965482059822,0,8.83296420292339,0.8923244538328837,-0.3315232350495599,0.3063485167486862,8.408270180008895,0.3063485167486862
11.305015553692254,-4.978098536363536,4.694008423460323,0,13.214331492227862,0.8555117268203397,-0.3767196652582428,0.35522102848873965,12.352523697891398,0.35522102848873965
7.777062758084284,-2.3442291172513325,2.502035071353177,0,8.49931143067671,0.9150226840746649,-0.275814004036876,0.29438091447297,8.122691382623772,0.29438091447297
10.103917793675821,-3.5079253331832594,4.85240454662425,0,11.744808419410145,0.860288004100391,-0.2986788041076822,0.413153145912954,10.695545564605283,0.413153145912954
7.952676279502973,-3.742865103427718,2.8776233738885972,0,9.24850341790369,0.8598879105248323,-0.404699542650555,0.31114475973679784,8.789431107246147,0.31114475973679784
8.718417854499492,-3.2461980361292073,3.7852260127032666,0,10.043731753818902,0.8680456694977453,-0.3232063654920806,0.37687446314603334,9.303150626289174,0.37687446314603334
9.39148935840015,-3.5631510156466724,4.7778216205299255,0,11.123115434393837,0.8443218461403972,-0.3203375022638924,0.42953987564998214,10.044705945384722,0.42953987564998214
9.030879987543422,-4.280947109902885,3.9724512867187314,0,10.75470458601962,0.8397143701448524,-0.39805343565343704,0.3693687032447777,9.994163372048614,0.3693687032447777
8.71498567588874,-3.0727504015449343,3.260332433237852,0,9.799109037885184,0.8893651088272391,-0.3135744678077474,0.3327172318047282,9.240820870525544,0.3327172318047282
6.791990343494465,-3.2124704078606907,3.4060111185207083,0,8.24936425956506,0.823335002526918,-0.389420360985498,0.41288164897937085,7.513394635416317,0.41288164897937085
8.302704954076138,-3.4475172714558613,3.713286920772568,0,9.72670471677883,0.8535989521460178,-0.35443836035330656,0.3817620693642573,8.990010283165805,0.3817620693642573
7.578198251192212,-2.9410718433624132,2.3873624515311302,0,8.472218823730453,0.8944762179614492,-0.34714304535248214,0.2817871564936677,8.128898592195126,0.2817871564936677
9.392362873548983,-3.0663862696222797,4.121051916000438,0,10.70524516287788,0.8773608386026017,-0.2864377436450924,0.38495633246129035,9.880243170233683,0.38495633246129035
6.391860966322991,-2.459026054090703,2.963075445320275,0,7.462071551664478,0.8565799620210331,-0.32953664904783664,0.39708483425883734,6.848554281561939,0.39708483425883734
11.242331066568353,-3.4032389489650376,4.242397948051979,0,12.488794317455797,0.9001934679038438,-0.2725034028471646,0.3396963582082786,11.746150141815853,0.3396963582082786
10.211062730327424,-4.0717751579976085,4.27869615255118,0,11.796287372975637,0.8656166476344211,-0.3451742933395912,0.36271548982041035,10.992959338593415,0.36271548982041035
7.526955003579882,-3.2698865329268125,3.0565957129301355,0,8.75728193656201,0.8595081279905513,-0.3733905744515205,0.34903475017387803,8.206534564853325,0.34903475017387803
10.716749234603661,-4.269873276116999,3.7890508971046986,0,12.142381918401602,0.8825903604928276,-0.35165038497480205,0.312051698140251,11.53605356920105,0.312051698140251
8.580151982751868,-3.1496100972964527,2.630742147930956,0,9.51103864259908,0.9021256568469972,-0.33115311751438314,0.2765988286650524,9.139970011554338,0.2765988286650524
8.059778840305123,-3.421932367152225,3.1533195448961346,0,9.30661486428971,0.8660269021372309,-0.3676881892128659,0.3388256192910374,8.756121063575709,0.3388256192910374
8.381171181751727,-2.3755791858468287,3.7513613749036003,0,9.484730834935325,0.8836488169892147,-0.25046353209063177,0.3955158496523829,8.711337833309779,0.3955158496523829
6.114112316813399,-2.7148806365580365,2.8011112626057066,0,7.252528565877118,0.8430318145288078,-0.37433573848043156,0.38622547118046974,6.689764292810851,0.38622547118046974
7.56244747643154,-2.764595071414726,3.438458776014615,0,8.755375291615334,0.8637490940763884,-0.3157597452232877,0.39272545853145635,8.051931305138933,0.39272545853145635
6.9236072564976405,-3.045118941762715,2.4702729760153903,0,7.9568420486862,0.8701451171373745,-0.3827044602783729,0.31045896863357636,7.56366887242619,0.31045896863357636
11.140456652062328,-4.961362098688285,4.7733324552079734,0,13.096167035385665,0.850665436838196,-0.37884077725053084,0.36448316841946915,12.195281394489443,0.36448316841946915
11.91690452955201,-5.2738149634220575,4.254795520174393,0,13.708720682593533,0.8692937003730291,-0.3847051147608846,0.31037145031168833,13.03172044800193,0.31037145031168833
9.937431693745584,-3.85294786654087,4.4466326202022435,0,11.548605872103685,0.8604875604725601,-0.33362883011254935,0.38503631255988546,10.658224802008121,0.38503631255988546
7.415699605550976,-4.568686627748626,2.4246149155716368,0,9.041252990108752,0.8202070679433312,-0.5053156495838385,0.26817244448575844,8.710080260384402,0.26817244448575844
7.696338983292316,-2.4782144147964633,2.5667840713255643,0,8.483133907952922,0.9072518560713763,-0.2921343033938368,0.30257497985729176,8.08549197213441,0.30257497985729176
8.142410594911535,-2.4774915115893643,2.4679990427736573,0,8.861593184143395,0.9188427437045137,-0.27957630869610395,0.2785051165731466,8.510981993056088,0.2785051165731466
10.16180406609065,-4.5123249935902985,4.237283660637072,0,11.898651669247993,0.8540298807430242,-0.37922994293986945,0.35611460679938306,11.118603272236857,0.35611460679938306
8.605964060570333,-3.4914848785821975,3.320279071079157,0,9.862927414264115,0.8725567672863619,-0.3540008693091149,0.33664235085794625,9.28725384972309,0.33664235085794625
9.126174140288112,-2.689441107165351,2.8502592928882002,0,9.931974926693574,0.9188680204739785,-0.27078613538754526,0.28697809991724094,9.514207686811039,0.28697809991724094
10.438737640297422,-4.595609282237601,4.796636605585236,0,12.373139897535744,0.8436611665868596,-0.37141819459690023,0.387665268905635,11.40556303730555,0.387665268905635
8.701003389936034,-3.6725291863164826,3.3083570359987378,0,10.007005390908265,0.8694912264003792,-0.36699582371096867,0.3306041025024832,9.444306783243794,0.3306041025024832
8.308146313315023,-2.942926284805972,2.763073712844723,0,9.236919758440331,0.899449874047392,-0.3186047255760604,0.29913367065032,8.813972446136411,0.29913367065032
9.968447906551178,-3.4797674870185187,4.186190548067469,0,11.35794553315278,0.8776629433073272,-0.3063729683208467,0.3685693452084596,10.55834908635511,0.3685693452084596
7.292411535653319,-2.6247079311642376,3.2921037880643835,0,8.42058816714331,0.866021635413536,-0.311701258755975,0.3909588882294468,7.750377908801999,0.3909588882294468
8.679407139182942,-2.7745765857157867,3.1046041947905905,0,9.626471353721126,0.9016187573059058,-0.2882236370695967,0.32250697900747416,9.112100938735374,0.32250697900747416
9.256443169550451,-3.8139862241030342,4.240402186343797,0,10.872407358571245,0.8513701578936103,-0.3507950077952409,0.39001502119039744,10.011405049680334,0.39001502119039744
10.125323689903063,-3.1953568752448365,3.843921106845944,0,11.291953544942627,0.8966848517046841,-0.28297644535351046,0.3404124088490903,10.617555527779764,0.3404124088490903
9.377337887133615,-3.61232720124775,3.6949428042289116,0,10.706819134778963,0.8758285508600036,-0.3373856563536996,0.34510182321345356,10.04904839566145,0.34510182321345356
9.071256136784745,-3.8830741177404193,4.506907306639229,0,10.847956764923914,0.8362179471544353,-0.35795442421895146,0.41546140017924743,9.86741873556709,0.41546140017924743
6.735778139444193,-2.3283767692803115,3.2921742638714986,0,7.850506793018928,0.8580055169729922,-0.2965893579444862,0.4193581829391025,7.1268538306561675,0.4193581829391025
9.77162409684304,-3.7508294019683865,3.2817960796605923,0,10.969208914099033,0.8908230459794868,-0.3419416506095841,0.29918256688888545,10.466774034661972,0.29918256688888545
8.407607731411124,-2.975519543414616,3.3763421263001314,0,9.536313253682229,0.8816413122927479,-0.3120199037364558,0.35405109254317274,8.918608877988003,0.35405109254317274
7.416346424147573,-2.793685559763969,2.7068460798559992,0,8.374597840483565,0.8855764259265421,-0.3335904138893738,0.3232210228377606,7.9250787560629465,0.3232210228377606
7.703133546759692,-2.8793510375041427,2.736913385430859,0,8.66715776455819,0.8887727391163233,-0.3322139870671799,0.3157798046116879,8.223680978515079,0.3157798046116879
8.152860759973178,-3.906251229470738,2.466339851088663,0,9.37074007217787,0.8700338177322164,-0.4168562140645183,0.26319584494839765,9.040350504225602,0.26319584494839765
7.609182585403341,-2.8996822334433134,3.7811614758344008,0,8.978028668883079,0.8475337811936358,-0.3229753813878221,0.4211572066972248,8.14296117348918,0.4211572066972248
9.68042488841478,-3.874165227502459,3.3486521834259078,0,10.95140418739956,0.8839437137707747,-0.3537596787779952,0.3057737734927903,10.426877875482646,0.3057737734927903
8.479512384354173,-3.2532765172413605,2.987996502211014,0,9.561070100740562,0.8868790098816851,-0.34026280353172755,0.31251695372253113,9.08217696227341,0.31251695372253113
10.087911124836761,-3.7452722497739352,3.8776705387824895,0,11.438065566120597,0.8819595469636949,-0.3274393058969152,0.3390145402093252,10.760716290634747,0.3390145402093252
9.342486244915388,-3.666571222268712,3.7705015711649104,0,10.721122882541707,0.871409305468246,-0.341995074810621,0.3516890546329621,10.036224079025056,0.3516890546329621
8.388054986752307,-3.4620580203351636,3.7100608133692647,0,9.803563813014403,0.8556128308786053,-0.35314280463388437,0.37844001264561505,9.074431783695731,0.37844001264561505
11.009884220556879,-3.092892137094161,3.76990668338083,0,12.041417222369038,0.91433458514369,-0.2568544947806121,0.3130783207459641,11.436062798085985,0.3130783207459641
9.87108310752372,-2.7772858713628916,3.453269216362443,0,10.820197170458059,0.9122831083406072,-0.2566760870999284,0.3191503040065446,10.25434534852967,0.3191503040065446
7.258891118342908,-4.054793062769097,2.718552625404306,0,8.747764024419645,0.8297996034277441,-0.46352337025210333,0.31077114309615406,8.314616470399459,0.31077114309615406
7.738322885279827,-2.863359563215643,3.9607500310388675,0,9.152486540469665,0.8454885840108245,-0.3128504533226779,0.4327512543750345,8.251088962379692,0.4327512543750345
9.592274069125333,-4.361510171337935,4.143340437248586,0,11.322621726916335,0.8471778268740013,-0.38520320439299643,0.36593472229130153,10.537290581164521,0.36593472229130153
7.851007821252735,-2.156324084911748,2.5009825831666816,0,8.517216167847637,0.9217809747379867,-0.2531724030971339,0.2936385004067236,8.141747807967409,0.2936385004067236
7.10255148494084,-2.601511430068399,3.153445626423144,0,8.195017915527648,0.8666913920326106,-0.3174503651955588,0.38480033343772196,7.564000219263075,0.38480033343772196
6.279911784173864,-2.6025900799480652,2.61876564130621,0,7.284826739555016,0.8620536916925308,-0.3572617679177694,0.3594822135009588,6.797850185260766,0.3594822135009588
8.375466266616066,-3.7267913757563806,3.10961301204123,0,9.680242880542405,0.8652124094376824,-0.3849894493088959,0.32123295359578746,9.16719199873308,0.32123295359578746
9.06112086739732,-3.130123551085347,2.910314192518847,0,10.018558455078201,0.9044335977102996,-0.31243252860382836,0.2904923104025678,9.586531427927532,0.2904923104025678
7.296675065473206,-2.470033238990414,2.2518922363730516,0,8.025805246643673,0.9091517724685154,-0.3077614224470949,0.2805814702910683,7.7034103624833525,0.2805814702910683
10.717814827278552,-3.631201239846105,4.238510253801861,0,12.083962358749524,0.8869453999513829,-0.3004975629717097,0.3507550030336632,11.31623511226644,0.3507550030336632
12.198684831284531,-4.607071434675297,4.9512777117178945,0,13.948052544917044,0.8745797875367183,-0.33030212783032625,0.3549798579961789,13.039670962766369,0.3549798579961789
10.169340118705549,-4.238085356375528,4.0843249648897855,0,11.749832184191431,0.8654881158547674,-0.36069326692832027,0.3476070892642157,11.017116044493624,0.3476070892642157
9.141452271213725,-4.559403566800665,2.9330246626758356,0,10.628120444542294,0.8601193709568848,-0.4289943448224648,0.27596833118145453,10.215395758943124,0.27596833118145453
8.657158924856292,-2.534592828005805,3.310286425017022,0,9.608775034813199,0.9009638474718014,-0.2637789748248674,0.3445066007918434,9.020563255916862,0.3445066007918434
10.070410857216757,-5.112328020683686,4.21661238058654,0,12.055243365122596,0.8353552518360416,-0.4240750572878788,0.3497741400049835,11.29376255391518,0.3497741400049835
9.129710607381407,-4.6551299372869455,3.5630363871497943,0,10.849750172410017,0.8414673575247361,-0.4290541130729942,0.3283980119846713,10.248016906092502,0.3283980119846713
7.290563053626556,-2.5708416036762953,2.27369621619166,0,8.057991727075782,0.9047617943226999,-0.3190424724609695,0.28216661088789385,7.730558594959195,0.28216661088789385
7.4516726768226675,-3.191550903777934,3.625729096781215,0,8.880277829953137,0.8391260746018789,-0.3593976410301992,0.40829005197919,8.106381612896795,0.40829005197919
7.621217186939288,-3.182983084909917,2.5102888194499235,0,8.632258261102754,0.8828764103688543,-0.3687312159383073,0.2908032572150175,8.259196857402143,0.2908032572150175
7.991397904410551,-3.6459960846426713,2.757382068700221,0,9.206458808284353,0.8680208178653404,-0.3960258944907083,0.2995051763245836,8.783833326961927,0.2995051763245836
11.214087486546916,-4.783132726529805,4.5233509136644425,0,13.003646424125716,0.8623802217308351,-0.3678301124564292,0.3478524996859536,12.191559245458661,0.3478524996859536
8.391662216724384,-3.0593670736352725,3.732364239952637,0,9.680406214127611,0.8668708761908741,-0.3160370552601836,0.3855586384903574,8.931949487701061,0.3855586384903574
7.671792751871977,-3.289193502388173,1.9886862395177427,0,8.58079663452498,0.8940653273385352,-0.38332029559517206,0.23176009457166602,8.347167059777107,0.23176009457166602
7.36582043744961,-1.8234257070616058,2.511299733077511,0,7.9929230182254765,0.9215427723567529,-0.2281300223840299,0.31419040660735015,7.588161307320996,0.31419040660735015
9.551378908744693,-2.180836298255613,4.265874584338662,0,10.68562454831297,0.8938531262782061,-0.20409067232293127,0.39921621474265173,9.797187658619295,0.39921621474265173
8.004154378039473,-4.161666457112849,3.447365616314625,0,9.657654202770724,0.8287886695863608,-0.4309189757403917,0.356956828639153,9.021416463491013,0.356956828639153
6.9556077791657644,-3.3589528457384494,2.4833140123247834,0,8.113562243632222,0.8572816193805308,-0.4139923679484509,0.3060695090216096,7.724185639760719,0.3060695090216096
11.277200248724945,-4.294683390184303,5.014303914592332,0,13.067623908716644,0.8629878184053481,-0.32865067285258887,0.3837196379096573,12.067292607365038,0.3837196379096573
8.317574948645593,-2.7023205471131133,3.720125951111476,0,9.503890069746152,0.8751758372209112,-0.28433836326826245,0.3914319214353918,8.745546830569626,0.3914319214353918
7.2071938146718,-3.329201557902328,2.188964454179281,0,8.235216516706961,0.8751674956026245,-0.40426399854190903,0.2658053312549199,7.938968805542868,0.2658053312549199
10.80398245069079,-4.599133201989557,4.166459548070872,0,12.45943209661613,0.8671328168821639,-0.3691286381534709,0.3344020430275024,11.742148994305825,0.3344020430275024
7.560294313552464,-3.3861573769591247,2.646179556755999,0,8.696342802331436,0.8693647991343666,-0.3893771731320569,0.3042864819043903,8.283967158859843,0.3042864819043903
8.295322698921844,-3.3138378927142047,3.4107921054396617,0,9.561767778238814,0.8675511569942941,-0.3465716768666999,0.3567114559299512,8.932743154173666,0.3567114559299512
7.884116449766156,-3.589801313040017,3.666519272241831,0,9.406876699218392,0.8381226523805972,-0.3816145813135076,0.38977010005313223,8.662907460003087,0.38977010005313223
8.808857920014496,-3.6317603210992013,4.043078640989372,0,10.350465969324143,0.851059067883655,-0.35087892002763094,0.39061803139799844,9.528150968835071,0.39061803139799844
6.754020033540237,-2.8980136768017553,2.842211428426655,0,7.879938812470055,0.8571157967434919,-0.3677710888079016,0.3606895302193003,7.3495081389432375,0.3606895302193003
6.755332141204637,-3.8458893127496325,3.0445957113253974,0,8.34834953684471,0.8091817563927541,-0.4606766038935165,0.364694326451994,7.773376161225846,0.364694326451994
8.532604673379433,-3.2382474242060724,2.7132147316286446,0,9.521193363884619,0.8961696656371818,-0.34010940650457255,0.2849658260192776,9.126422568156364,0.2849658260192776
7.956631152685138,-3.7161225820401835,3.4009732241148583,0,9.417227044930733,0.8449017013950163,-0.3946090037237195,0.3611438067584441,8.781659657754258,0.3611438067584441
7.3394690704245225,-2.47907118111134,2.6823971215633957,0,8.198100662623421,0.8952645707177578,-0.3023957966768889,0.3271973877794542,7.746844529015345,0.3271973877794542
9.167044943321827,-3.5884720445779905,4.559461220712153,0,10.848987567085603,0.8449677803238923,-0.3307656149837374,0.4202660563963551,9.844381372519049,0.4202660563963551
5.043244857449932,-1.8661182768522382,2.0449135417919133,0,5.753119806574611,0.8766104352088339,-0.32436631594559456,0.355444282501297,5.377426532775427,0.355444282501297
8.827306392649513,-3.5714782193989456,3.52314732470325,0,10.153293155076124,0.8694032820510372,-0.3517556486206045,0.34699552853370114,9.522436391037328,0.34699552853370114
10.289888728943525,-3.855141400923759,3.802656457007942,0,11.627730707458769,0.8849438456932043,-0.33154718645580816,0.32703341285403825,10.98835407489017,0.32703341285403825
7.79906515007728,-2.97647334539227,2.9511023125043296,0,8.85402821600705,0.8808493670685937,-0.33617165800433674,0.3333061788948313,8.347742856064782,0.3333061788948313
10.061446653715235,-3.1374168430864584,3.396339664913157,0,11.072994912502331,0.9086472750344197,-0.28333950009712855,0.3067227693817874,10.539264358238677,0.3067227693817874
10.00200771083526,-5.060176327968732,3.5216576195583027,0,11.74936658323061,0.8512805894669008,-0.4306765213361301,0.29973169996964943,11.209172258366944,0.29973169996964943
6.04534877951985,-2.4540560630506025,3.2920887247580173,0,7.307973809361692,0.8272263882193464,-0.33580526245276043,0.450478998780862,6.524464194601544,0.450478998780862
8.962389435414316,-3.177358742407952,2.4727933324033584,0,9.825209404117599,0.912183045346424,-0.3233883993430581,0.25167843561349923,9.508944892572591,0.25167843561349923
9.338923277179559,-4.284454413941035,4.103516649613228,0,11.063945340421652,0.8440861726838257,-0.3872447198638956,0.3708909004296329,10.274825429280297,0.3708909004296329
8.879302844478657,-3.2816127065080964,4.719626858476204,0,10.57761214276323,0.8394430354069573,-0.3102413533618967,0.44619019820131894,9.46630872935603,0.44619019820131894
9.00787983123545,-3.7472354470137863,3.079216443128523,0,10.230603425652276,0.8804837267613206,-0.36627706999353976,0.3009809211651853,9.756211997970063,0.3009809211651853
9.296908386404235,-3.814839905412178,3.5971075705428532,0,10.67355104560686,0.8710229938171102,-0.35741056459202797,0.3370113240825687,10.049154643507014,0.3370113240825687
9.43600992128126,-3.1513889969824374,3.401152350764742,0,10.51367553037152,0.8974986810295658,-0.2997418921554903,0.3234979376089378,9.948343371879577,0.3234979376089378
7.808398728718755,-3.507677557346647,3.4616497716002788,0,9.23352108863083,0.845657756533765,-0.37988515146899116,0.37490029408852316,8.560075499256419,0.37490029408852316
9.168723227859394,-3.37814735180032,4.476226199323954,0,10.747742374428132,0.8530836438426674,-0.314312274532917,0.41648060061191466,9.771251975031854,0.41648060061191466
10.122553311827943,-4.023388275322426,3.0002963085926764,0,11.29847408742241,0.8959221602407784,-0.35610014628447106,0.2655488064474689,10.892829695024192,0.2655488064474689
7.088561069146225,-2.183372431551246,2.4731873705868357,0,7.81866158468978,0.9066207805984069,-0.2792514304272546,0.31631850845542947,7.417197125995336,0.31631850845542947
8.448281299451622,-2.3450665123528447,3.6189445398830657,0,9.485228170411725,0.8906777093465437,-0.2472335372667216,0.3815347901879706,8.767713148935856,0.3815347901879706
9.152644430988278,-3.2398274679733086,3.5789996991777615,0,10.34778338336523,0.8845029019163447,-0.31309386251567195,0.3458711461752522,9.70913910201801,0.3458711461752522
7.858204269991939,-2.0771274779768962,3.679338208620225,0,8.922071651925851,0.8807600495223243,-0.2328077557557547,0.4123860861200359,8.128089130212969,0.4123860861200359
10.458896116836076,-4.737242150208599,4.163365114793534,0,12.21325428587981,0.8563562071190141,-0.3878771406311828,0.340889087980994,11.481723353768881,0.340889087980994
9.26723746181212,-4.298998383480845,4.204371971581592,0,11.047163479835254,0.8388793628996176,-0.38914952162407546,0.3805838466368284,10.215824845541592,0.3805838466368284
8.22945156448686,-3.849040450475932,2.502809375631842,0,9.423536502417011,0.873286962105587,-0.40844967804695237,0.26559130693555494,9.085096886750037,0.26559130693555494
9.75231469742985,-4.491923255082846,3.1847307258723854,0,11.199443123815398,0.870785680110446,-0.401084518705297,0.28436509660914455,10.73708603333606,0.28436509660914455
9.046794621656296,-3.3814739191581396,2.487704482812985,0,9.973341084420197,0.9070976862296126,-0.3390512658230943,0.24943541605121075,9.658098093950796,0.24943541605121075
8.192722145792356,-4.646368901054355,3.2581994694291585,0,9.96620810064841,0.8220500779287692,-0.4662123100512078,0.3269246875566623,9.418568899935996,0.3269246875566623
8.696396424565766,-2.3810535161862,3.8562063914174463,0,9.806480222452482,0.8868009955962469,-0.24280409098614666,0.3932304255902589,9.016469742651106,0.3932304255902589
7.7457969676917156,-1.9993575823649548,3.3031133666994985,0,8.654788230807922,0.8949724431291657,-0.2310117277333215,0.3816515527140927,7.999675081330642,0.3816515527140927
8.65386277963598,-3.332256551409482,3.3460313472495447,0,9.858458323184056,0.8778109615054883,-0.33800990400020675,0.33940716058825443,9.27325588632064,0.33940716058825443
7.630285063672672,-3.1458759357935246,2.8458506359036937,0,8.730214854067713,0.8740088521552771,-0.3603434724550623,0.32597715903609314,8.253349959641302,0.32597715903609314
7.776383449156835,-3.18550010438933,3.7983443736700444,0,9.222091435481198,0.8432342602067329,-0.3454205726190692,0.4118745081030365,8.40354392285688,0.4118745081030365
5.754828980018693,-1.439506377769689,1.017987052909568,0,6.0188481323916205,0.9561346047340759,-0.23916642289455703,0.16913320132320162,5.932135804320615,0.16913320132320162
8.017609139429577,-3.951888614403681,2.8468356620100574,0,9.381042224604384,0.8546608092650063,-0.4212632796853592,0.30346688500595825,8.938650901188508,0.30346688500595825
8.083376678001049,-2.3858895153460065,3.478621801733209,0,9.1177989085844,0.8865491286927327,-0.26167384686447664,0.38151990810612085,8.428134271467753,0.38151990810612085
9.019468132252129,-4.0570710978495175,4.025024389000055,0,10.677614556339954,0.8447081587990755,-0.37996043745937486,0.37695913893147154,9.889925747027506,0.37695913893147154
7.419037864814504,-2.9165959039337626,2.5983568752138035,0,8.384516262573852,0.8848498389741367,-0.34785499993036395,0.3098994377066386,7.971740995942765,0.3098994377066386
9.792230173385272,-3.9697920829381643,4.354521030529038,0,11.428423966393405,0.8568311958132155,-0.3473612892391632,0.38102550652075984,10.56631539138954,0.38102550652075984
7.55349226288133,-2.5723363519965345,2.7031714882151805,0,8.424921113453255,0.8965653400385682,-0.3053246810689923,0.320854219501076,7.979483672093762,0.320854219501076
8.445352495924698,-3.129640027231538,3.485503478666562,0,9.657502781789299,0.8744861572134055,-0.3240630728197101,0.3609114651500813,9.006587893340704,0.3609114651500813
8.494296104204688,-3.5078345138018565,2.4393959509648435,0,9.508344855321042,0.8933517066801723,-0.36892167534697784,0.25655316336151957,9.190101701402789,0.25655316336151957
6.931635653061735,-3.2648407276300935,3.4920125092427377,0,8.420267761080792,0.8232084596050919,-0.3877359747062285,0.41471513832174345,7.6620335292655035,0.41471513832174345
6.795450701028331,-2.2493117279492676,2.2974823428062803,0,7.517710994385405,0.9039255041998164,-0.29920167583313106,0.30560929311091534,7.158041176159617,0.30560929311091534
8.140567288889997,-3.1630796388453293,3.683920641653848,0,9.478669731593513,0.8588301438287839,-0.3337050164647488,0.38865376112587935,8.733493492676555,0.38865376112587935
8.871181074058569,-3.6646204485774065,3.441057666179475,0,10.196478536379074,0.8700240031308752,-0.35940059457809337,0.3374751051456092,9.598296550996256,0.3374751051456092
8.192046180398584,-4.256330918712353,3.9402071758992063,0,10.037490029901766,0.8161448884127815,-0.42404335207633653,0.39254905002757623,9.231791457315843,0.39254905002757623
8.777507846904207,-3.502687772617723,3.672300773198888,0,10.138996922957803,0.86571757675843,-0.3454668937404017,0.3621956689703368,9.45058017451366,0.3621956689703368
7.558539540103023,-3.048989643127566,2.645723187533885,0,8.568996966288088,0.8820798478327886,-0.35581639894643646,0.3087552951579533,8.150328694181603,0.3087552951579533
8.326141433191411,-3.1192541937886977,3.856270890033423,0,9.691501589965007,0.8591177905612327,-0.3218545820617216,0.3979023120654873,8.89125288645954,0.3979023120654873
9.471318299484887,-2.7229097459570126,4.049270344047439,0,10.654421529767209,0.8889565963786142,-0.2555661739447347,0.3800553913447343,9.854953465886329,0.3800553913447343
5.620125621469698,-2.791040915590073,2.482223358660568,0,6.748122271852977,0.8328428850365894,-0.4136025998271778,0.36783912007850605,6.2750076807600825,0.36783912007850605
8.956480781149438,-3.59664205991771,3.298259783990411,0,10.199651939794654,0.8781163155386805,-0.3526239994411143,0.3233698368786508,9.6516517804088,0.3233698368786508
7.151278261740548,-3.5716723660755134,2.422351321017744,0,8.352569077228083,0.8561770870279112,-0.42761362798101193,0.2900127252610086,7.993598955879033,0.2900127252610086
7.908795659014357,-3.397614328434919,4.227957574538498,0,9.590018621093916,0.8246903339289048,-0.3542865204621844,0.44087063243431135,8.607719320518683,0.44087063243431135
9.380195973020387,-4.106702205466609,4.013651747676519,0,10.998294406328599,0.8528773304725202,-0.3733944604268409,0.36493401607498327,10.239779269918477,0.36493401607498327
7.9621564512609915,-1.8484422078897405,3.068522118603928,0,8.730893536324153,0.9119520720456737,-0.2117128333084639,0.35145567928844834,8.173902002731946,0.35145567928844834
9.787080961476985,-4.031930489418651,4.884525028960732,0,11.657701401929662,0.8395377977220244,-0.34585981836447266,0.4189955515717886,10.585056316241731,0.4189955515717886
8.740792648281861,-2.7482447030612573,2.8090554289485272,0,9.583584792292896,0.9120587794361869,-0.28676583581452647,0.29311113636804936,9.162658187892992,0.29311113636804936
9.954479481106018,-3.438057890874478,2.949551525744205,0,10.9367160520782,0.9101890762917323,-0.3143592532258508,0.26969261263610567,10.53147206238354,0.26969261263610567
7.580870529868729,-3.0878878408448767,3.349371555804049,0,8.844373303241957,0.8571404971214769,-0.3491358556420265,0.3787008350921051,8.185636768649696,0.3787008350921051
8.210694280707663,-3.3253167069116762,3.8073002954634547,0,9.642031285592655,0.8515523376258146,-0.34487719531468863,0.3948649597468544,8.858511826063758,0.3948649597468544
9.914395031615362,-3.2947039795121875,3.9270983683707636,0,11.161200865067931,0.8882910675539589,-0.2951926069016351,0.35185267390552083,10.447502244820663,0.35185267390552083
7.726358627630928,-3.1732968051628934,3.479027122987203,0,9.048207556135333,0.853910410398566,-0.35070999261187047,0.38449904043460775,8.35263014004714,0.38449904043460775
8.36176848127143,-4.10416159476519,4.076617633673006,0,10.167700126454536,0.8223854339995339,-0.40364699427817474,0.40093802757482755,9.31468273911301,0.40093802757482755
8.937296799712996,-3.389668972740883,3.405723628730689,0,10.14712192033864,0.8807715990678402,-0.3340522563296214,0.3356344444728057,9.558510858440368,0.3356344444728057
9.606955744296387,-3.8580070634322103,3.6600316058704037,0,10.980603286264943,0.874902361358708,-0.3513474590469895,0.33331789797456246,10.352671982360988,0.33331789797456246
7.929651327063845,-3.089910976560248,2.949394644670763,0,9.006988885409234,0.8803887101392333,-0.34305704335504544,0.3274562322874185,8.510400696317001,0.3274562322874185
9.829492718850133,-4.162563940705781,3.833742455204977,0,11.342109454736931,0.8666370888128692,-0.36700086146385436,0.33800965071835454,10.674542878755597,0.33800965071835454
10.623122508960792,-3.651421490235707,3.408668833135482,0,11.738936661969593,0.904947595754249,-0.31105215023990607,0.2903728788467256,11.233147855331763,0.2903728788467256
9.43908380171569,-3.5201653575025946,4.080464293651459,0,10.869133176649248,0.8684302279039315,-0.3238680859173902,0.37541763702166636,10.074118679069295,0.37541763702166636
8.681514819184054,-2.0090049199192466,2.9649879857276313,0,9.391270099378533,0.9244239306628561,-0.21392260031496618,0.3157174646615519,8.910937118169564,0.3157174646615519
8.79665249965657,-2.405538718293084,2.9217074321871737,0,9.576225041435643,0.9185929175216833,-0.25119905890729277,0.3051001223911462,9.119633310880506,0.3051001223911462
7.961906943543874,-3.8805527412970813,2.7367645733332635,0,9.270411645956854,0.8588514995465532,-0.4185955154418115,0.29521499992148253,8.857237252983598,0.29521499992148253
6.961407967555288,-2.9257385197465404,3.0144104768672153,0,8.130671392924311,0.8561910365254005,-0.3598397202834509,0.3707455794475344,7.55123478489915,0.3707455794475344
10.159955400412056,-3.7283540169953397,4.097423251603174,0,11.572130085562714,0.8779676105687341,-0.3221839012721436,0.3540768398996035,10.822445075601326,0.3540768398996035
8.921103031745808,-3.960099922495046,3.576980593978545,0,10.395348039814184,0.8581822366675923,-0.3809492387679434,0.34409435646394027,9.760556884684885,0.34409435646394027
9.110000400203715,-3.3650536866253766,4.723901905479949,0,10.799580677886524,0.8435513074000702,-0.3115911429335159,0.437415307721412,9.71162672293282,0.437415307721412
7.555095483387762,-3.408157725393066,2.807038153017068,0,8.750683975367645,0.8633719952239902,-0.389473295457442,0.3207792854728404,8.288245100397466,0.3207792854728404
8.4155599448784,-2.386516573163185,2.7995841094483196,0,9.184485926043973,0.9162799107802899,-0.2598421503805524,0.30481663666223097,8.747405932036324,0.30481663666223097
7.803850584995501,-3.2727401982665008,3.3016650900126936,0,9.0836063721901,0.8591136895679855,-0.3602908431045794,0.36347513913866863,8.462323106469292,0.36347513913866863
8.153211864069776,-2.754617608038785,4.4128514253775055,0,9.671403185132018,0.8430226419061736,-0.2848208843442177,0.4562783022179701,8.60597361528174,0.4562783022179701
7.659109462288665,-2.966470292286341,3.2647717531340836,0,8.838588029227257,0.8665535079768039,-0.33562717059295893,0.3693770704481536,8.213519571434476,0.3693770704481536
10.50720827467352,-3.850860776083521,3.3488883519478625,0,11.6809934354043,0.8995132419839295,-0.3296689444591093,0.28669550843146685,11.190645845711778,0.28669550843146685
6.493168303345074,-2.732259770234466,3.6026172298239496,0,7.912352935267185,0.8206368391889501,-0.3453157098258538,0.4553155375269286,7.044606310334656,0.4553155375269286
8.088316282218315,-3.1664996075518697,3.740438712923592,0,9.457191010599372,0.8552556750892673,-0.3348245376457914,0.39551265367606575,8.686056645326696,0.39551265367606575
11.660304526846264,-4.966751549131764,5.226101880417642,0,13.709247370811392,0.850543010236465,-0.36229206569768124,0.38120997740143125,12.674041289564835,0.38120997740143125
10.455745175600757,-3.482414706510935,3.5803368281445973,0,11.587434192615321,0.9023348052551798,-0.3005337202890248,0.3089844368157317,11.02042736763063,0.3089844368157317
9.968393072302023,-3.3172765823700807,3.96693749674561,0,11.22986097291263,0.8876684311895423,-0.2953978317604849,0.35324903009166336,10.505864284667869,0.35324903009166336
10.616171795112521,-3.2809322979554505,4.281217016097475,0,11.907831014338102,0.8915285900790575,-0.275527280661349,0.35952954076544286,11.111598459587615,0.35952954076544286
8.50443141096142,-2.735054592725799,2.9171085361754914,0,9.397627331447318,0.9049551669816707,-0.29103671557324634,0.31040904616572307,8.933413527254727,0.31040904616572307
8.9294222223815,-3.5991307389319105,4.238946754754432,0,10.519362760696499,0.8488558124209297,-0.34214341883705585,0.4029661160267627,9.62747751498206,0.4029661160267627
8.918964418463547,-4.2022252406547755,3.8819894965891875,0,10.596058971270576,0.841724686758144,-0.3965837913934227,0.3663616356906418,9.8593419289025,0.3663616356906418
10.566792097237508,-3.9095683336357574,3.8509297767692225,0,11.906782937771915,0.8874598749689515,-0.3283479974455085,0.3234231947365824,11.266846044106954,0.3234231947365824
9.760078333562426,-3.5998811786935536,3.67819553843908,0,11.033920246085701,0.8845521914140015,-0.3262558635921459,0.3333534642634312,10.40280123707008,0.3333534642634312
9.529711378609397,-3.959590180421822,3.8191674011345875,0,11.003626356541712,0.8660518877891501,-0.3598441143058102,0.34708261416601743,10.319581064970144,0.34708261416601743
9.52729089906391,-3.909100253397481,3.6103613328538326,0,10.912609478042562,0.8730534083744064,-0.3582186516674169,0.33084308021086056,10.29807441546711,0.33084308021086056
9.43645186487332,-4.317407328489866,4.211151138835087,0,11.19912602627014,0.8426060964702013,-0.3855128800553176,0.3760249798919003,10.377216863792004,0.3760249798919003
10.645745498410134,-4.505831393623263,5.152683191166543,0,12.656403827043874,0.8411350999770236,-0.35601198059083095,0.40712063723475883,11.560035197380698,0.40712063723475883
5.670121094150938,-2.460405985599983,2.419162686517812,0,6.637485890015265,0.8542573480540985,-0.37068342236345225,0.3644697294433342,6.180927991516456,0.3644697294433342
7.677313533795698,-2.7777168715063496,2.606518431129155,0,8.570343776434502,0.8957999508614427,-0.32410798725998785,0.3041323077723188,8.164364893514596,0.3041323077723188
7.423301893461566,-2.4414518579906543,2.7064125579468947,0,8.269871045558617,0.8976321217787664,-0.2952224822540432,0.327261760556761,7.814480032372985,0.327261760556761
10.508231937293866,-5.135379930534593,4.009985632165839,0,12.364265050906857,0.8498873078204627,-0.4153404920867447,0.32432058158375754,11.695942265542365,0.32432058158375754
8.710393070627727,-3.5213486079948084,3.5637874900423685,0,10.048453848132507,0.8668391378686129,-0.3504368593631195,0.3546602834529308,9.39525643417286,0.3546602834529308
7.746268837284212,-2.822402350736375,3.329366369223499,0,8.891305660556226,0.8712183714084145,-0.31743395835070304,0.37445190800191425,8.24443060064931,0.37445190800191425
9.320809099526276,-3.315292074146679,3.8102984997352656,0,10.60127437923368,0.8792159099083744,-0.3127258059314872,0.35941891167339973,9.892858222309243,0.35941891167339973
10.146158944395733,-3.6560003054698016,4.09444357555472,0,11.53582887147422,0.8795344536954028,-0.3169256709858408,0.3549327595938472,10.784752178818799,0.3549327595938472
9.251511941498876,-3.716250498265253,4.265640266230712,0,10.844200194133354,0.8531299474260802,-0.34269475219350176,0.3933568349778711,9.970004562163101,0.3933568349778711
7.8803769649457625,-3.339466343850832,3.050011301632616,0,9.085975209709023,0.8673121798224817,-0.3675407720992206,0.33568342761638376,8.558760223967035,0.33568342761638376
9.41200927843079,-4.079009015503129,2.8964400103380923,0,10.65896795845219,0.8830131880608005,-0.38268329836460546,0.27173737848056073,10.257886390764089,0.27173737848056073
6.8491948576197785,-3.9837816248077047,3.559863524475123,0,8.686461566408337,0.7884907801936861,-0.4586196110293632,0.40981744951725485,7.923508454706206,0.40981744951725485
9.879908383158199,-4.311236616078387,3.7892933823074455,0,11.426202131793996,0.8646712415201238,-0.3773114256470353,0.33163192271590763,10.779580271022368,0.33163192271590763
8.06400106467008,-2.670595052384457,3.847922315069981,0,9.325593667302583,0.8647171807350023,-0.28637265869175743,0.4126195556387552,8.494715481098854,0.4126195556387552
8.374669493407238,-3.2064611508968124,2.277157901579032,0,9.252131124489113,0.9051611332269864,-0.3465646030901738,0.24612252798187326,8.967523751628224,0.24612252798187326
7.986231239657786,-3.7979988874843587,3.1440628690477905,0,9.385617522951987,0.8509009897460574,-0.4046615876042861,0.334987320904476,8.84334127819448,0.334987320904476
11.300198255771713,-4.633064817648281,4.617184930105866,0,13.056728797944494,0.865469324717129,-0.35484116192852677,0.3536249394130591,12.213098305682976,0.3536249394130591
10.92538714766558,-4.113068653295177,3.803614002110995,0,12.277984262498077,0.8898355718728298,-0.33499543291142264,0.30979140555903534,11.673963254743251,0.30979140555903534
9.750319496088755,-3.335170568063555,4.0859251590167185,0,11.0854353725495,0.8795612592928151,-0.3008605847202293,0.3685849965924262,10.304954778837502,0.3685849965924262
9.741696137520346,-3.3045205434365394,4.046901199609418,0,11.054316305279722,0.8812572273572047,-0.29893486419040194,0.3660924011805734,10.286909140153467,0.3660924011805734
10.995246384538477,-3.6220616234811773,4.571873361537549,0,12.446557736777596,0.8833965677152066,-0.2910091046923409,0.36732030318940245,11.576475001527951,0.36732030318940245
7.560908211469763,-3.24973578896861,3.2898611539153704,0,8.862917245039338,0.8530947545179527,-0.36666660639165044,0.37119393795047995,8.229709331463313,0.37119393795047995
9.039217488095812,-3.70486148426406,4.749735034679773,0,10.86247827681809,0.8321505698553756,-0.3410696334528655,0.4372607165361437,9.769004627631233,0.4372607165361437
11.10695020695817,-4.292446434811086,4.355019465717591,0,12.678944508213199,0.8760153654559558,-0.3385491932731872,0.3434843856991791,11.907537079327971,0.3434843856991791
8.932302575289953,-3.867948947145696,2.8907066605114045,0,10.153976725962199,0.8796851535469243,-0.3809294674918773,0.284687146575814,9.733810063600842,0.284687146575814
9.489318159393745,-3.870787428257462,4.402345404302565,0,11.153958916175899,0.8507578547408824,-0.34703260585296736,0.39468904604966,10.24842204658629,0.39468904604966
6.3256322635514,-2.6823388148283183,3.307455076154098,0,7.62547205961667,0.8295397601744524,-0.3517603623562629,0.43373774768251694,6.870848932353046,0.43373774768251694
10.60276918031699,-3.7497059016856973,4.253433155431684,0,12.02375574635238,0.8818184104857193,-0.3118581232676185,0.3537524584797091,11.246288660718982,0.3537524584797091
8.865758095340277,-3.0093179821245,2.5345614311645868,0,9.699570246715913,0.9140361758132585,-0.3102527128089409,0.2613065699506368,9.362567026335755,0.2613065699506368
11.253238591728996,-4.495309033907931,4.364476796283026,0,12.87990061366958,0.8737053902252794,-0.34901736967884756,0.3388595088731476,12.11788686664111,0.3388595088731476
9.419038755381095,-3.9530417375247455,3.3280495738522156,0,10.743404675427694,0.8767275402856519,-0.3679505572908502,0.309776060233878,10.21493172047585,0.309776060233878
9.20107286407127,-3.1392193432374023,3.212702224356011,0,10.238940155957872,0.8986352809882686,-0.3065961218076601,0.3137729272190923,9.721853729351443,0.3137729272190923
8.224616197039374,-3.2461228848886194,2.936076986479206,0,9.316768401271593,0.8827756409525906,-0.34841725640036025,0.3151389902617389,8.842037399400663,0.3151389902617389
7.617871008023406,-3.885327757431757,3.806050349098058,0,9.360221671382718,0.8138558332772982,-0.4150892888905061,0.40661968089221734,8.551475339235518,0.40661968089221734
8.214416552057603,-3.2073833572879398,3.410299623581931,0,9.454844832884813,0.8688050092040763,-0.33923172870403623,0.3606933465180304,8.818386887142431,0.3606933465180304
8.106012137376203,-2.9654685246177968,3.203513056719461,0,9.206732984417505,0.8804439263195442,-0.32209780924861015,0.3479532926762883,8.631421455460808,0.3479532926762883
6.41463442084247,-1.8742704374600303,3.0397504780904323,0,7.3416964929670465,0.8737264509623011,-0.2552911904292804,0.4140392456978235,6.6828455335877415,0.4140392456978235
8.020963646901475,-3.4058867754191735,4.271066164967463,0,9.704531350736113,0.8265173615306075,-0.35095839792004263,0.4401105020536094,8.714122018418736,0.4401105020536094
9.358315819128347,-3.105173147759783,3.7259011466207372,0,10.54051775780042,0.8878421377548371,-0.29459398666273545,0.3534836933283867,9.86002917075382,0.3534836933283867
8.213657723469431,-3.326895512563357,3.259931140788369,0,9.442433901939955,0.8698665840575203,-0.3523345301765728,0.34524267520883717,8.861851214606531,0.34524267520883717
9.617694875099268,-3.4315508167901774,3.743027038236379,0,10.875929713256363,0.8843101351948359,-0.31551792878980794,0.3441569720402026,10.211542279142954,0.3441569720402026
7.7507600799802,-3.0063694468035482,3.624563383784567,0,9.069178506963041,0.8546264773627954,-0.33149302822690596,0.3996572987290675,8.313395158904004,0.3996572987290675
8.494326095504642,-2.8925568241618453,3.8519341561510867,0,9.76513479380084,0.8698626567753125,-0.2962126878164667,0.39445785823626256,8.97331938569983,0.39445785823626256
9.565414485684347,-3.686944315017994,3.451392449803787,0,10.816784296062579,0.884312215522894,-0.34085401114637,0.3190774961704773,10.251376135182214,0.3190774961704773
8.795732548947248,-3.1991044831776603,3.2006416003767004,0,9.891576579138402,0.8892144218443075,-0.32341704657320824,0.3235724431560221,9.359443389801417,0.3235724431560221
10.024330627414676,-3.7958207440148444,4.038746132361674,0,11.454559352942553,0.875138913557555,-0.3313807739832208,0.35258852024928955,10.718929967511558,0.35258852024928955
11.736706126975296,-4.558041377095175,5.166149683642042,0,13.609375976145486,0.8623985513771825,-0.3349192046045689,0.3796022457383255,12.590711334404071,0.3796022457383255
10.6754361495598,-3.6726015234194476,3.405238346781688,0,11.791886495872639,0.9053204636337354,-0.31145156669417745,0.28877808041771597,11.28950569923905,0.28877808041771597
10.193536084169482,-4.111792663590368,3.8697124656452697,0,11.652883393151725,0.8747651323929074,-0.3528562438037288,0.33208196933640116,10.991588456980223,0.33208196933640116
8.729038867546459,-3.2305230922832786,3.5892276341125564,0,9.975718220278152,0.875028611955227,-0.32383864709775273,0.35979641313610383,9.307652711662177,0.35979641313610383
10.967895230301922,-4.375059959082725,4.718803852291248,0,12.716248866110135,0.8625102690096196,-0.34405271595011205,0.37108457863444727,11.808296889409945,0.37108457863444727
9.577008160876845,-3.736382343524186,4.370278469787618,0,11.170450851867626,0.857351980495544,-0.33448805183181013,0.39123563835894193,10.28006022990629,0.39123563835894193
8.94971697857734,-3.3463372719273394,3.3216205451985226,0,10.115758507418539,0.884730193194503,-0.33080438500714054,0.32836099663337787,9.554863009699597,0.32836099663337787
8.431141022975225,-3.8833886474381245,2.6025046218481274,0,9.640429276909193,0.8745607462905763,-0.4028232079602137,0.26995733769674135,9.282502159242789,0.26995733769674135
10.292733528460953,-4.738813092423915,3.150238112822705,0,11.76098266218913,0.8751593148378228,-0.4029266285426065,0.26785500865931344,11.331227339208784,0.26785500865931344
7.157464218943035,-2.2749523579205944,3.5890601265278432,0,8.323824533715879,0.859876873899916,-0.27330614054943586,0.43117921479366333,7.510306403620182,0.43117921479366333
8.881420628106401,-2.579812864324804,2.89656792106727,0,9.691500013395533,0.916413415449678,-0.26619335095279395,0.29887715184064917,9.248517004811617,0.29887715184064917
6.5511525210825265,-2.835181812017004,1.3095324841259113,0,7.257460340136827,0.9026783770145984,-0.3906575687830147,0.18043949573980342,7.138337009533661,0.18043949573980342
11.194189109170608,-3.2572224812656225,4.216250130217521,0,12.397424460947333,0.902944732144407,-0.262733803422322,0.3400908102726477,11.658446213125316,0.3400908102726477
9.846066858820848,-3.350158975795953,3.8559937598993232,0,11.092217344961238,0.8876554211492739,-0.3020278878071028,0.3476305629415881,10.40041334522222,0.3476305629415881
8.751727411332858,-3.854646786146958,3.324062730987576,0,10.124249481703252,0.8644322156569884,-0.3807340774358784,0.32832682926224693,9.563003426132818,0.32832682926224693
6.402619582035454,-3.0489007728774196,1.9930669952697675,0,7.366250707296762,0.8691829583933701,-0.41390130393705993,0.270567358411451,7.09149726328061,0.270567358411451
9.577212510508085,-3.0573837789180933,2.717879274103358,0,10.41429127649235,0.9196221092957367,-0.2935757890524313,0.2609759225995809,10.053387242269347,0.2609759225995809
7.834517815687786,-3.40709377434385,2.7924121066815624,0,8.98807669999782,0.871656760081908,-0.3790681686488809,0.31067960364448605,8.543298975893443,0.31067960364448605
8.8772000647563,-3.653975476570177,3.0255128317122644,0,10.06528418217494,0.8819621884573641,-0.3630275519732632,0.3005889130353895,9.599803006993712,0.3005889130353895
8.027666345130601,-3.9117659515431202,3.323624450263362,0,9.528474132555695,0.8424923270455946,-0.41053435178859216,0.34880972588335196,8.93002462529609,0.34880972588335196
8.898627792465156,-3.302101079110286,4.083106740936333,0,10.332531576693793,0.8612243501425177,-0.3195829651814036,0.39517002301219645,9.491546139881248,0.39517002301219645
8.59559230512317,-3.4273138135932673,3.746806172210218,0,9.983448479601247,0.860984290416901,-0.3432995943832585,0.3753017987588063,9.253685052601469,0.3753017987588063
8.731532622903114,-3.8002359808523662,3.1046338697203817,0,10.015997549919888,0.8717586620189371,-0.37941662444623525,0.30996751489273416,9.522681106441938,0.30996751489273416
7.7032155399847095,-3.3256676845213815,2.3469710998725852,0,8.712512183461717,0.8841554970341532,-0.38171168251956505,0.2693793765164148,8.39044666292157,0.2693793765164148
8.163416287848563,-3.2026298366285073,3.667373312539982,0,9.505147572379128,0.8588416145763499,-0.33693636129700744,0.385830234050963,8.769162067106203,0.385830234050963
7.913716081091004,-3.495898684971511,4.139059008636092,0,9.590621424322592,0.8251515445100543,-0.3645122177490636,0.43157359940609313,8.651485989568723,0.43157359940609313
7.2622397863616825,-2.4972798076819442,3.0103342274620544,0,8.24855413472568,0.8804257895075572,-0.3027536422618139,0.36495295760851165,7.679618034282079,0.36495295760851165
8.342595031545201,-3.3070710504920684,3.242778675808679,0,9.542076521053731,0.8742955491017094,-0.34657771221969497,0.3398399361662821,8.97416351496703,0.3398399361662821
11.003441295630491,-4.197959650996088,3.219363925459933,0,12.209131404908803,0.9012468562019448,-0.343837699159193,0.26368492718208897,11.777036366496352,0.26368492718208897
9.823193640829624,-3.7806382552908855,4.185472228855529,0,11.327247534203767,0.8672180608013994,-0.3337649542728599,0.3695047906578428,10.525604919557091,0.3695047906578428
10.54733981954935,-4.001356519575582,5.083699641050883,0,12.373408314050831,0.8524199276259349,-0.3233835349175194,0.41085685625342233,11.280834688346484,0.41085685625342233
8.054270017934059,-3.520256774478946,2.709720577663618,0,9.198155189442613,0.875639718188113,-0.38271334870707546,0.29459391822109726,8.789964350329097,0.29459391822109726
7.193657551886057,-3.0736197866613497,2.6938867579171197,0,8.273625168645523,0.8694686313742844,-0.3714961367006831,0.325599323513726,7.822777484165292,0.325599323513726
8.173170776479932,-3.3787819425466776,3.9474684587600892,0,9.685008786247478,0.8438991597081124,-0.3488672046786867,0.40758542876754195,8.844031205100142,0.40758542876754195
6.248653856400693,-1.786284195379495,1.786143846672549,0,6.739940362108557,0.9271081820738591,-0.2650296737671229,0.2650088503325811,6.498960397153827,0.2650088503325811
11.026990959626712,-4.635719915623982,4.2389927658932125,0,12.690685104796236,0.8689043080471078,-0.3652852369547794,0.3340239499198633,11.961790365986275,0.3340239499198633
9.41010889790391,-3.4415353570451206,3.2364226957843525,0,10.529422916285112,0.8936965465932575,-0.32684938048431333,0.3073694276994807,10.019696356886373,0.3073694276994807
8.160690513604651,-3.566744967404419,3.0457862449248303,0,9.412510460611186,0.8670046687071358,-0.3789366271974181,0.3235891484711356,8.906095627228673,0.3235891484711356
8.311789518799356,-2.5007053590168247,3.3393103020459436,0,9.300019655397964,0.8937389195704534,-0.2688924810567849,0.3590648649981857,8.679825591418199,0.3590648649981857
7.072727706858547,-2.256560176202356,2.9230472477039764,0,7.978705800848704,0.8864504950296842,-0.28282283274090936,0.3663560633346135,7.423984175911676,0.3663560633346135
11.853099836661245,-4.519377926225518,4.443240563264146,0,13.441098886659127,0.8818549686012622,-0.336235747116718,0.33057122789820814,12.685454370179782,0.33057122789820814
8.74484801539038,-3.138679711216048,3.9577635085950633,0,10.098889499932307,0.8659217447075737,-0.3107945394626891,0.39190086282472864,9.291053607738808,0.39190086282472864
6.962671453568861,-3.938546003408735,3.262918653475441,0,8.639304169347646,0.8059296578852383,-0.455886947166734,0.37768303899431105,7.999433629408374,0.37768303899431105
6.140147829892798,-2.663142231264019,4.0930327115642084,0,7.845167856382283,0.7826662147066236,-0.33946274700769746,0.5217265948279745,6.692812705946516,0.5217265948279745
9.059226876865795,-3.3801117143854738,3.3585333691530854,0,10.235941246410526,0.8850409218636953,-0.3302199214528307,0.32811182560576285,9.669268163012829,0.32811182560576285
9.694925510237086,-3.7625059973303117,4.042190483192145,0,11.157389297295381,0.8689241947116781,-0.3372210018917567,0.3622881998185719,10.399424600860971,0.3622881998185719
8.277245159848896,-3.168478681395435,2.6913749307012282,0,9.262588385991593,0.8936211796226533,-0.3420727068242964,0.29056402147498717,8.86295913285734,0.29056402147498717
8.894571578922193,-3.6856170549366216,3.6810370142903954,0,10.307628735494216,0.8629115199205638,-0.3575620687855429,0.3571177337436283,9.627937299765206,0.3571177337436283
10.29380602339302,-3.994397531628439,4.375579826725788,0,11.877009426112766,0.8667001645010977,-0.336313409236366,0.3684075401258543,11.041632763677743,0.3684075401258543
10.730109016476929,-4.13300897493546,3.466483642227078,0,12.009725706035274,0.8934516307133229,-0.3441384987550956,0.2886397014450595,11.498565244950196,0.2886397014450595
7.1136016688452965,-3.1818351755778895,2.772619904286676,0,8.271325463381913,0.8600316479309162,-0.3846826230770668,0.3352086574952679,7.7927789515386205,0.3352086574952679
8.986187986206055,-3.4884905641846173,3.6833209281837087,0,10.319302011271654,0.8708135469230909,-0.33805489560962354,0.3569350838031933,9.639561242081465,0.3569350838031933
7.743758085797116,-3.9269276997329396,3.372029827795854,0,9.31435105682747,0.8313792381833085,-0.4215997094992979,0.362025202531328,8.682542856230429,0.362025202531328
7.378630920470583,-2.037443680978034,3.4015097405865133,0,8.376493271589657,0.8808734969675796,-0.24323348863520022,0.4060780126360668,7.6547613296354236,0.4060780126360668
9.116346114611359,-3.240181930514215,3.133330720141897,0,10.169774177729089,0.8964157861612458,-0.3186090343687207,0.30810229070804895,9.675047567026244,0.30810229070804895
7.700928966375215,-3.3031760470455103,3.182437322236007,0,8.963436074011613,0.8591492038084722,-0.3685167183400421,0.3550465799006583,8.379455766512049,0.3550465799006583
8.857672668489018,-3.2881497387844427,4.088567303523176,0,10.294983069544328,0.8603872982261322,-0.3193934090588049,0.397141721934288,9.44829581494809,0.397141721934288
9.137148753045546,-5.188816704928305,4.3640958126880784,0,11.37790131768361,0.8030609949872326,-0.4560433914876561,0.3835589438542037,10.507678436868193,0.3835589438542037
6.7623882096680745,-3.3071425225626494,1.8107134338433193,0,7.74246531166272,0.8734153706160848,-0.42714334381078806,0.2338678135394142,7.527754377156565,0.2338678135394142
9.729807925339685,-3.990506742920309,2.3926095727072676,0,10.78507704639637,0.9021546979667351,-0.370002618039123,0.22184445807985329,10.516335213813575,0.22184445807985329
8.135182004070053,-3.883037337646325,3.2232715225626616,0,9.573329855022449,0.8497755877284536,-0.4056098971257289,0.33669283012029916,9.014386568419434,0.33669283012029916
8.917642688347996,-3.3564908907668523,2.9167165058273605,0,9.964818984417786,0.8949126624670972,-0.3368341056687004,0.29270140384770627,9.528398722600105,0.29270140384770627
10.120758562857107,-4.052381882310136,3.5566914422208353,0,11.467415001772972,0.8825666953966819,-0.35338233435204,0.31015633790797115,10.901905925466469,0.31015633790797115
7.630438990823546,-3.282938200039124,4.040127715214335,0,9.23709447679298,0.8260648421420881,-0.3554081002729903,0.43738079385943707,8.306701055049253,0.43738079385943707
6.061475204723848,-1.9839212093870524,2.6044720166955777,0,6.8891726287187875,0.8798553224599817,-0.28797670145711124,0.3780529472927352,6.377885623193458,0.3780529472927352
8.29990212979178,-3.3833020500337745,3.9817497686484735,0,9.807621492799212,0.8462706412442197,-0.344966621368678,0.4059852607048393,8.96298544715347,0.4059852607048393
9.283291693950835,-2.693687865007126,3.4550963532027197,0,10.265142463647445,0.9043509845894788,-0.26241115255306413,0.33658532898481014,9.66620189055987,0.33658532898481014
9.760132983685121,-3.1544301737960563,4.571542550996542,0,11.229854267805313,0.8691237438108425,-0.28089680405198497,0.40708832385319754,10.257223093048783,0.40708832385319754
8.312662703778466,-3.210596498853306,3.0886020979732796,0,9.431211694413586,0.8813992277049966,-0.34042248259097474,0.3274873047121569,8.911132986620647,0.3274873047121569
11.327846824054586,-4.640924665336504,4.533599698630627,0,13.054187896839696,0.8677557664691617,-0.3555123230959492,0.34729082609023665,12.241662281674508,0.34729082609023665
6.414586291129727,-2.132024321032603,2.3933630833811197,0,7.170818073324378,0.894540375385083,-0.2973195386121685,0.33376430121473727,6.759618701659433,0.33376430121473727
7.558152522604049,-2.293576288484024,3.2348958431300976,0,8.535262905262055,0.8855207632730785,-0.2687177083988844,0.3790036556619433,7.898491105650629,0.3790036556619433
9.561510626061915,-4.6466415663801595,4.671391697078928,0,11.61187597618252,0.823425142128096,-0.40016286566537834,0.402294315462942,10.630793164139108,0.402294315462942
8.103866693764443,-2.594312113015099,3.524096231935338,0,9.209905807443546,0.8799076628139683,-0.2816871493862997,0.38264194071204566,8.509001746976052,0.38264194071204566
10.32172552597338,-3.980057504861516,4.108265272440813,0,11.800708416204431,0.874669991150688,-0.3372727606247946,0.3481371734259147,11.062498613583411,0.3481371734259147
8.856108883683884,-2.6891935093436308,3.694173820296492,0,9.965407493169785,0.8886850728135096,-0.2698528395539052,0.37069972530761547,9.255399844974852,0.37069972530761547
9.882376304699727,-3.8831014476635937,3.2669056289542975,0,11.10911835696384,0.8895734105222562,-0.3495418198717309,0.2940742481968798,10.617901783334489,0.2940742481968798
6.309374246676662,-1.8594043250722025,2.324890411730916,0,6.9764391529835805,0.904383182927692,-0.2665262728303163,0.33324886245680807,6.577658232891393,0.33324886245680807
8.22244445597032,-3.156800538295504,3.705745841426311,0,9.555445291107487,0.8604983028496132,-0.3303666592318093,0.3878150864277316,8.807609350448047,0.3878150864277316
9.472505519445365,-3.9496632425990414,3.992646590743468,0,11.012239887708418,0.8601797287415011,-0.35866120633710086,0.3625644402461627,10.262952818066585,0.3625644402461627
9.128932555960112,-3.0509239151517686,3.651277382394148,0,10.29453121178893,0.8867749650907837,-0.2963635596789448,0.35468126787675724,9.6252556510107,0.35468126787675724
10.094468791912913,-3.6741039581614188,3.101840079181648,0,11.181178469334025,0.9028090213923722,-0.3285972018278907,0.27741620328204997,10.742315396890985,0.27741620328204997
8.840644709014141,-3.89374128431108,3.9087718677568835,0,10.420974885985277,0.8483510233676453,-0.3736446279654321,0.37508696744040937,9.660135612928434,0.37508696744040937
10.264766488486014,-3.9057370728717915,4.895775147157184,0,12.024509446837012,0.8536536591258707,-0.32481467041461526,0.4071496778145069,10.982723393837732,0.4071496778145069
10.260997946406624,-3.265045775590767,2.6538874891579227,0,11.090163280041146,0.9252341635828967,-0.2944091708249992,0.23930102940270473,10.767943293538654,0.23930102940270473
9.81565427825076,-3.1662007588285186,4.133131914087195,0,11.11101595600487,0.8834164505853274,-0.28496050868483974,0.37198505793284126,10.313675201175801,0.37198505793284126
7.856105304207147,-3.457542178746021,2.9149814692499274,0,9.064772773471486,0.8666632358616242,-0.3814262381584117,0.32157248086579376,8.583297062819128,0.32157248086579376
8.189103220387306,-2.2910228626552485,3.3113880421877466,0,9.125540426589035,0.8973828220109312,-0.2510561298901168,0.3628703493043956,8.5035402810457,0.3628703493043956
7.318884104721736,-2.2115973325513316,2.494304284031398,0,8.042311928856902,0.9100472811133563,-0.2749952192995426,0.310147667249948,7.645732620206951,0.310147667249948
8.481356458016792,-3.747759579456614,3.6666530903853514,0,9.971131035072421,0.8505912145958667,-0.37586102983445485,0.3677268985322005,9.272492072434032,0.3677268985322005
8.700731431618296,-3.8057690428548714,3.1304706519554406,0,9.999322574827625,0.8701320880998066,-0.3806026872695901,0.3130682732284398,9.49666285874691,0.3130682732284398
9.398497522449446,-2.931693347759445,3.580881934729116,0,10.476129867238889,0.8971344992429474,-0.2798450749381678,0.3418134349333816,9.845129839915032,0.3418134349333816
9.405608152829654,-4.248730358640602,2.645642834832976,0,10.65441694296375,0.8827895701079338,-0.3987764306001271,0.24831418265268632,10.32071578840392,0.24831418265268632
7.3001000552577775,-2.916463456234748,3.9095627167382068,0,8.779629863749198,0.8314815280994532,-0.3321852403227987,0.4452992640248608,7.861120779400819,0.4452992640248608
8.008202353657117,-2.363279768586329,4.125426466780793,0,9.313191705024883,0.8598773231883903,-0.2537561604483277,0.4429659130236674,8.349634495097904,0.4429659130236674
11.92617774055507,-3.9709462166549985,4.762142349634186,0,13.441730882332726,0.8872501499215671,-0.29541926195489093,0.35428044135992603,12.569889790880344,0.35428044135992603
9.381936926378483,-4.233027112168218,3.8076555308802718,0,10.974402018549277,0.8548927686921657,-0.38571824733716,0.34695790480833977,10.292679875663836,0.34695790480833977
8.20048269051522,-2.988540309685342,3.801659940786089,0,9.520079193233194,0.8613880750429119,-0.31391969005988685,0.3993307055143283,8.728074790012624,0.3993307055143283
9.501301096524507,-4.040396796142825,3.359489228231328,0,10.857517979340459,0.8750896028543039,-0.37212895284454867,0.3094159488958452,10.324704780142579,0.3094159488958452
6.784741747345082,-3.0973094025030705,2.9834394791818983,0,8.0328673111749,0.8446226589485062,-0.3855795549111408,0.37140405332371107,7.458287076333354,0.37140405332371107
10.926476827978878,-4.7135785600904665,5.112506471498905,0,12.951580642362616,0.8436404119077221,-0.3639384790357619,0.39473996361314284,11.899820112695144,0.39473996361314284
10.522804032599273,-4.164535975131863,3.5561221947761226,0,11.862494242815647,0.8870650486487918,-0.35106748124696086,0.29977862344842343,11.316923813327323,0.29977862344842343
8.70941223460035,-2.2906779221775038,3.992261906521682,0,9.85084879315594,0.8841281007836985,-0.23253609615538864,0.40527085435474147,9.005613072709581,0.40527085435474147
7.453922878019624,-3.102617759825232,2.2767387722737245,0,8.388727118712454,0.8885642329922028,-0.3698556069256712,0.2714045575752582,8.07385925286336,0.2714045575752582
8.99326145716408,-3.823148741257592,2.7790857758220615,0,10.15965234070876,0.8851938191948692,-0.3763070440844318,0.2735414247086516,9.772165468036881,0.2735414247086516
9.04773713212535,-4.272899113828024,2.237743348810557,0,10.253131684716532,0.882436450671168,-0.41674087929615394,0.21824974238321448,10.005958927009054,0.21824974238321448
9.498290601028462,-2.5793826863734353,3.1684579765193406,0,10.33972269131613,0.9186214064527718,-0.24946342985965603,0.30643548875642346,9.8422934006434,0.30643548875642346
8.101067147299363,-3.6140280937944813,3.2538509748392084,0,9.448599586936197,0.8573828399395867,-0.3824935177474661,0.34437388788684,8.870653188338997,0.34437388788684
10.2550660098626,-3.867697024686207,3.7012222587367516,0,11.568254204934043,0.8864834596640048,-0.33433713991490377,0.3199464839870239,10.960176054307055,0.3199464839870239
7.095516249482938,-3.0864330985883264,3.1455362949965067,0,8.352653392897272,0.849492480499269,-0.3695152849527903,0.3765912635224792,7.737727064115014,0.3765912635224792
9.43134938858405,-3.1470371331839413,3.742969801492563,0,10.623747782306797,0.887761040815689,-0.29622664220484785,0.3523210337999788,9.942544644465185,0.3523210337999788
8.246533511437166,-4.625289969931869,3.8421743058878324,0,10.205926006886058,0.8080142366183267,-0.45319650238607756,0.37646503642055335,9.455084466106506,0.37646503642055335
9.463010814662793,-3.7691081885041884,4.046069577817307,0,10.96017469037848,0.8633996338552897,-0.34389125127840753,0.3691610482604075,10.186007569949783,0.3691610482604075
6.356429344374022,-2.2244547747115337,1.9844433606698157,0,7.0207128203952776,0.9053823318208513,-0.3168417269895243,0.2826555381819603,6.73441853872746,0.2826555381819603
8.350362675916434,-3.3417072730682746,3.5434663482350275,0,9.667042881837743,0.8637970036943705,-0.3456804023644719,0.36655121856265116,8.994196146305443,0.36655121856265116
7.135111985790578,-2.9618736142101283,2.1795555816467056,0,8.027015690143743,0.8888872603739493,-0.3689881431086487,0.2715275098219816,7.725446159046514,0.2715275098219816
9.482349266932427,-4.035072143346424,3.54454815007971,0,10.89773262703475,0.8701212987561207,-0.3702671263319807,0.32525556199520866,10.305180969886178,0.32525556199520866
9.550660885963515,-3.5561732199071083,3.4469799297233235,0,10.758399600524852,0.8877399279254865,-0.3305485343501853,0.3203989494455255,10.191245818282368,0.3203989494455255
7.617396260989052,-3.5351457704614737,1.5269621923398473,0,8.535431737889828,0.8924441662598619,-0.4141730470139581,0.17889688995595557,8.39773668409183,0.17889688995595557
9.666119949977727,-4.829837344051142,3.1295904564067296,0,11.249690666066355,0.8592342880266636,-0.4293306800532655,0.2781934676521238,10.805609823482818,0.2781934676521238
10.479757864612376,-3.731758744459225,3.3638811051329487,0,11.621834808549952,0.9017300656263525,-0.3210989319615733,0.28944492505247177,11.12435832880948,0.28944492505247177
9.098045427226312,-3.653187057337985,2.9179071701636667,0,10.229095195835647,0.8894281706294223,-0.3571368715803162,0.2852556471809522,9.804091302704977,0.2852556471809522
7.544987732113539,-3.114861847707179,3.976421845173087,0,9.079710066891746,0.8309723192181633,-0.3430574131508021,0.4379459053073414,8.162671389198856,0.4379459053073414
8.940771275398975,-3.735990699530768,2.7947966531139157,0,10.084934597618199,0.8865472739417223,-0.370452645316422,0.2771259075665175,9.68994414359442,0.2771259075665175
9.754488946946688,-3.9679688312182617,5.459492543340451,0,11.861740601295187,0.8223488672380505,-0.33451826039637034,0.4602606587724846,10.530661482624192,0.4602606587724846
8.659496864519518,-3.7907693148001735,4.138168019365296,0,10.318975361010978,0.8391818530004828,-0.3673590819029518,0.4010250896616027,9.452873528438532,0.4010250896616027
8.075649495472161,-3.0227082169275863,3.1349686522577604,0,9.17501543263226,0.8801783010358711,-0.32944993271367046,0.34168538192402315,8.622811591261943,0.34168538192402315
11.617882143659122,-4.609971847651037,5.010089173891546,0,13.465809276476252,0.8627689509872,-0.34234643852444196,0.37206001295769076,12.499081003821384,0.37206001295769076
9.162264091144587,-3.2166301982450243,3.022625258617308,0,10.170056861304696,0.9009058863776283,-0.3162843868143692,0.2972082948835688,9.710499117354338,0.2972082948835688
8.328037959785215,-3.2609910642991125,2.879979798612942,0,9.395986516671934,0.8863399223709202,-0.3470621268467037,0.3065116998095729,8.943728472011108,0.3065116998095729
7.620691620820615,-1.9023104202850385,2.3886174300277276,0,8.209702731634248,0.9282542705786397,-0.23171489668619935,0.2909505384188548,7.854535359572237,0.2909505384188548
9.385383781199488,-3.4764048791463877,3.6496625444934185,0,10.653208732247453,0.8809912597309545,-0.32632467517727765,0.3425881005640887,10.008537335902545,0.3425881005640887
7.483896070123338,-2.972048327277268,3.360362345114658,0,8.725468854940898,0.8577070406807418,-0.34061760768240107,0.38512112082227123,8.05243886335557,0.38512112082227123
11.482890002164702,-3.744195179619896,4.181523728142032,0,12.781271495196311,0.8984153107521743,-0.29294387346572737,0.327160230475787,12.077903805913628,0.327160230475787
8.723424532258578,-3.3547426156189046,3.362842939873659,0,9.932831732457691,0.8782414488864125,-0.33774282158194147,0.33855833164724186,9.346252381947556,0.33855833164724186
9.525179266701551,-4.013941038046698,4.067218927712602,0,11.107791523325425,0.8575223298618343,-0.36136265517927313,0.36615909824844894,10.336380542516636,0.36615909824844894
10.297355605390784,-5.161570850994012,3.781092070655829,0,12.123283522234413,0.8493866852577662,-0.4257568373722811,0.3118867973120656,11.518565280177217,0.3118867973120656
10.318855931139703,-4.589960181915727,3.82232068424207,0,11.922946683281515,0.8654618866667344,-0.38496860749631795,0.3205852366681946,11.29364964035935,0.3205852366681946
10.01165753932237,-3.9753712668227057,3.657786134326501,0,11.376126880367554,0.8800585335066956,-0.3494485696782475,0.3215317632083513,10.772040818422013,0.3215317632083513
7.678471212188727,-2.415241221341959,3.0494762001180526,0,8.607648657372515,0.8920521175794112,-0.2805924495156162,0.35427517101388123,8.049367075347007,0.35427517101388123
10.987386413592253,-3.5501481028862876,3.818048874552239,0,12.161566879415183,0.9034515472006849,-0.2919153541716168,0.31394382914710733,11.546697006244631,0.31394382914710733
9.159468727906248,-4.083360003818906,3.779837710653172,0,10.717129719153176,0.8546568874254507,-0.38101246423483215,0.3526912344727912,10.028444360830868,0.3526912344727912
7.712271193385428,-3.0508727936376863,2.908393637044516,0,8.788953595922687,0.8774959509358718,-0.34712582793166946,0.33091466524453594,8.293789951721788,0.33091466524453594
8.885878989732236,-3.2763004377391307,3.3185804544530395,0,10.035236230959994,0.8854678440272444,-0.3264796525298849,0.33069280862714445,9.470638308925878,0.33069280862714445
9.105094810859043,-3.808471938964966,4.826359254071178,0,10.986398576147433,0.8287606487013053,-0.3466533561993225,0.43930312746432537,9.869509107580571,0.43930312746432537
7.011375791225089,-2.653398763305763,2.9890431509017126,0,8.07058203854234,0.86875714263744,-0.32877415168249796,0.370362773914826,7.49666028861451,0.370362773914826
9.34727993038381,-3.2868750324586222,4.145338707662731,0,10.740531764172701,0.8702809260863251,-0.3060253537373898,0.3859528372226763,9.908339395476712,0.3859528372226763
9.058835661360567,-3.298349442665271,4.570714329467794,0,10.669256865736735,0.8490596651067727,-0.3091451901638618,0.42840043941075145,9.640623039278543,0.42840043941075145
7.988542251348821,-2.802480642928196,3.2830301360035974,0,9.080142726272552,0.8797815730621408,-0.30863839120275915,0.36156151229919037,8.46585524655203,0.36156151229919037
6.253227200838669,-2.575878452172632,2.254143916402452,0,7.128756204383067,0.8771834835639232,-0.3613363086521139,0.31620437728204354,6.762987522217965,0.31620437728204354
9.17374412654509,-3.239930932602439,3.3632032109833565,0,10.293972488098238,0.8911762817660197,-0.31474058594467846,0.32671577613713754,9.729066437606162,0.32671577613713754
9.183673006952743,-3.3182815680206543,3.981305278306317,0,10.545218545974654,0.8708850335262475,-0.3146716735697542,0.37754601869546556,9.76477559718082,0.37754601869546556
7.977416648189882,-3.2116646686296075,3.3364842914773525,0,9.224212364739657,0.8648344522817191,-0.34817765914697185,0.3617093969162451,8.599649197644101,0.3617093969162451
10.043385583441134,-3.72452426426015,3.4243532632506173,0,11.245793446630211,0.8930793217130111,-0.3311926616770824,0.3045008144157868,10.71175405677034,0.3045008144157868
8.47107595915445,-3.014199263847217,2.592992862963604,0,9.357784839123081,0.9052437200456381,-0.32210606630379396,0.27709472995391005,8.991358357219537,0.27709472995391005
6.747140923878171,-2.407796613243557,3.7272611828397206,0,8.075510578441618,0.8355064188622745,-0.29816029461609656,0.4615511485787681,7.163895251706206,0.4615511485787681
8.427956405130006,-3.3354710806081442,3.938580840003161,0,9.88272409457965,0.8527968932930611,-0.3375052312183379,0.3985319029763609,9.063984581647585,0.3985319029763609
7.564098506103276,-2.460237054141006,3.1871395605286565,0,8.568909566035169,0.8827375814637266,-0.28711203393868434,0.37194225659255553,7.95414059296177,0.37194225659255553
9.39430078533831,-4.873133920713421,3.8470239500980443,0,11.26054682185744,0.834266837477499,-0.43276174752493873,0.3416374010035396,10.58302043155052,0.3416374010035396
6.884087195392895,-2.832595793287772,3.76324761790511,0,8.341240200089702,0.825307391977378,-0.33958928472738503,0.4511616411507536,7.444075190507146,0.4511616411507536
8.945998563523101,-2.547408879213737,3.9982144076054458,0,10.124519778519776,0.8835973220678545,-0.25160787226850306,0.39490410360875333,9.30162256256694,0.39490410360875333
11.146246989436142,-4.228749065701646,3.4492101754185764,0,12.410406578529079,0.8981371334537881,-0.3407421859182031,0.27792886184615134,11.92145715129601,0.27792886184615134
7.907046283011638,-2.212290157719968,3.1972405591132596,0,8.811240313172242,0.8973817535303298,-0.2510759074874777,0.3628593075975455,8.210700863119591,0.3628593075975455
9.083417857692181,-3.4656239823370507,4.321649274933007,0,10.639345939479547,0.8537571679088124,-0.32573656332360795,0.4061950141969359,9.722089773520452,0.4061950141969359
7.937472919313411,-3.4755736259465033,2.432486765168346,0,9.000004457605998,0.8819409986631028,-0.38617465605911555,0.2702761733759616,8.665049819487981,0.2702761733759616
7.8357644463665315,-3.3245777883580225,2.7518545592447627,0,8.945653997613674,0.8759297473898259,-0.37164166971412943,0.307619158976956,8.511875347406429,0.307619158976956
6.7820590066599715,-3.4541895916086394,3.071552290617238,0,8.207446836781283,0.826329934452514,-0.4208604283769287,0.37423968155994897,7.611028189712288,0.37423968155994897
8.026019869275125,-3.6210919285303724,3.077187595700881,0,9.327292490106776,0.860487636448425,-0.3882254075736526,0.3299122010985263,8.805072498103971,0.3299122010985263
9.73210807532673,-4.525665729112411,3.631907175735866,0,11.330769065454648,0.8589097544135879,-0.39941381762958195,0.3205349217476206,10.732920286739407,0.3205349217476206
8.775805767037342,-3.235298555562516,2.953165815233004,0,9.808318507096493,0.894730912407452,-0.3298525178624369,0.3010878789362658,9.353177193039313,0.3010878789362658
7.8359737171666595,-2.722267957127448,3.258492290864333,0,8.91240702258104,0.8792208095201375,-0.3054469965554914,0.3656130473628965,8.29537382681031,0.3656130473628965
11.083709785939186,-4.754840686383298,3.6269955572338453,0,12.594134719940236,0.8800691776299963,-0.3775440546030511,0.28799084954135357,12.060561038849315,0.28799084954135357
5.516794586199985,-2.3644495868771336,2.7428477083028047,0,6.599155847996838,0.8359848915940663,-0.35829576408547137,0.415636146725553,6.0021366491616055,0.415636146725553
7.044289148165536,-2.8535412436432495,2.675444707032186,0,8.057463100289217,0.8742564577072263,-0.35414884413691244,0.33204554258972063,7.600309680015401,0.33204554258972063
11.187614110303636,-4.386481339953979,3.790401450188748,0,12.600439324897463,0.8878749241860007,-0.3481213017141903,0.3008150233856701,12.016818548469036,0.3008150233856701
5.4969912503840055,-2.4244906194753693,1.8164910812909805,0,6.276520327309715,0.8758023496659595,-0.3862794180600656,0.2894105310847575,6.0079170742215116,0.2894105310847575
8.516018773633073,-3.4691561121702814,3.0189238741338222,0,9.67840489136999,0.8798989987726811,-0.3584429615321888,0.3119237010662498,9.195521729813887,0.3119237010662498
9.087602081572593,-4.055968780438013,4.202844943878414,0,10.802745019816708,0.84123082280496,-0.37545723545244164,0.38905342449244673,9.951652844673106,0.38905342449244673
8.52939495316518,-3.0194003315151114,3.477248653361578,0,9.69322520249778,0.8799336417941986,-0.31149594365527206,0.35872979124281046,9.048058168968257,0.35872979124281046
10.027806959800332,-4.219914873687807,4.079520650398393,0,11.61925482555652,0.8630335688777732,-0.3631829180995424,0.3511000241965172,10.879549345638887,0.3511000241965172
7.2185193731149235,-2.8533169626332073,2.7218240230020236,0,8.225373282804664,0.8775917061667472,-0.34689209407652455,0.3309058360539163,7.761986835165714,0.3309058360539163
7.540195928760685,-3.632487346523039,3.3917390590517176,0,9.030692820124392,0.8349520993514232,-0.4022379477273598,0.3755790531921779,8.369559066447241,0.3755790531921779
8.341381246871686,-2.873396333929287,3.059789578493513,0,9.337952659023198,0.8932773115755163,-0.307711597911427,0.3276724235196095,8.822417332993316,0.3276724235196095
10.119012745957363,-4.245192438161736,4.794774958759796,0,11.975222114642515,0.8449958296459904,-0.3544980124394514,0.4003913174100596,10.973425982339023,0.4003913174100596
7.5590736189994105,-2.310775629426167,2.4650349438305197,0,8.279835461004541,0.912949738506315,-0.27908472823031377,0.29771545043860714,7.904383466596414,0.29771545043860714
10.329109312077012,-3.994998100107116,4.253717884712575,0,11.863583979701039,0.8706567365941388,-0.3367446217721965,0.3585525160011358,11.07476902696826,0.3585525160011358
8.87903827267876,-2.958416303501453,2.4680976989054018,0,9.67889735062107,0.917360516496129,-0.3056563362883086,0.25499781736470534,9.358928767359938,0.25499781736470534
9.508572647467746,-3.577808872493929,4.641819231847202,0,11.16960858317849,0.8512896917254311,-0.32031640552580637,0.4155758187299253,10.159412882655575,0.4155758187299253
7.027271223816101,-3.4166528670032053,2.7454171448203852,0,8.282111624806126,0.8484878666412082,-0.41253402776772946,0.3314875806065524,7.813837576164164,0.3314875806065524
8.638111366481205,-2.610777085293601,3.95131671620248,0,9.851194280926912,0.876859304582554,-0.2650213782047094,0.40110027307579355,9.024030417104429,0.40110027307579355
7.814013341338716,-3.977121954289465,2.720509028851799,0,9.180276298346083,0.8511740918676366,-0.4332246465180991,0.2963428267776565,8.767913294388277,0.2963428267776565
10.707232733829814,-4.536887699891042,3.608530885959237,0,12.175782437804195,0.8793876523766778,-0.3726157003105284,0.29636952732953126,11.628765317858095,0.29636952732953126
8.753684145141106,-3.815383736116442,3.6096041367165337,0,10.20849554001557,0.8574901277889725,-0.37374593750477586,0.3535882562290886,9.54903865144113,0.3535882562290886
8.025976205156235,-2.907628259098503,3.1718496848390876,0,9.106658364189144,0.8813305478458966,-0.3192859710794035,0.348300063315432,8.536427598172567,0.348300063315432
8.0269812565315,-3.244188770043232,3.0027965705006676,0,9.16373156046123,0.8759511563133877,-0.354024858611195,0.32768272953966043,8.657781983186146,0.32768272953966043
9.111475447035868,-3.0107615525289253,3.1309280115916756,0,10.093878350856684,0.9026733957282695,-0.2982759894538849,0.31018087426484076,9.596023652957712,0.31018087426484076
9.38502105691627,-3.1955531200566183,3.952511100857534,0,10.672981026136393,0.8793251888983857,-0.29940586535582037,0.3703286917852171,9.914140405595706,0.3703286917852171
8.732524976104441,-4.154469913822647,2.7927982187877185,0,10.06560155251584,0.8675611616994512,-0.4127393571211112,0.2774596435410931,9.670398788216824,0.2774596435410931
7.170594265630909,-1.944661275960533,3.9158476732586354,0,8.398392262849146,0.8538055905474331,-0.23155161310610284,0.466261583253339,7.4296116722557795,0.466261583253339
9.725944942016113,-4.65239029233886,3.466214483677969,0,11.324901028010647,0.8588105907469101,-0.41081068000786825,0.3060701789008792,10.781407164529947,0.3060701789008792
7.315536615027626,-3.1035936391827934,2.7719596292452375,0,8.416242013461302,0.8692165224487176,-0.3687624041964063,0.32935835552395537,7.9466577529792835,0.32935835552395537
6.454306550427033,-2.9439047608968285,2.5179740644923867,0,7.527605308301746,0.8574183005196837,-0.39108117924968405,0.334498683361555,7.093986769660366,0.334498683361555
10.878619658373005,-5.754582135894637,4.32931301643934,0,13.046169262454338,0.833855474317711,-0.44109362833853377,0.3318455348344054,12.306891615281954,0.3318455348344054
11.055171420435387,-4.604396082022651,4.222754010567565,0,12.698382961980686,0.8705967880741099,-0.3625970405687356,0.3325426570619746,11.975695320746805,0.3325426570619746
7.991291656402403,-1.862979332567071,2.4215173004988952,0,8.55541818778452,0.9340620739980214,-0.21775432733692018,0.2830390341358594,8.205573370049086,0.2830390341358594
9.210848760211851,-3.0115775746656914,3.5899051435047675,0,10.334251463511396,0.8912932680933784,-0.29141709830645157,0.34737931007196343,9.690682864056871,0.34737931007196343
8.851628792900852,-3.4478025110170867,3.397106277774266,0,10.088558147960512,0.8773928507008987,-0.3417537432456678,0.33672862146916605,9.499403899313215,0.33672862146916605
9.269341057857057,-3.554847147942223,3.7144881793335274,0,10.599766239239242,0.8744854224749704,-0.33537033437421904,0.3504311411682717,9.927619145198285,0.3504311411682717
10.082847838407924,-4.889024603171372,4.618203080719343,0,12.119990998250286,0.8319187563640553,-0.4033851678501396,0.38104014115076934,11.205640637772673,0.38104014115076934
7.146076925163474,-3.256771444830182,3.6348740954130383,0,8.65362845017741,0.8257896634118802,-0.3763475013493807,0.42004046237258075,7.853214352366496,0.42004046237258075
7.446380177737419,-1.7991875593220585,2.4299591449185876,0,8.036812494452853,0.9265340186643697,-0.22386830109124592,0.3023535943629128,7.660656213733914,0.3023535943629128
8.719426266503012,-3.135388582346611,3.705605036697979,0,9.979507235695236,0.8737331473957853,-0.31418270544779864,0.3713214439530213,9.26601618708343,0.3713214439530213
9.413365043783925,-3.8081842558625927,3.619729876247757,0,10.780359602125221,0.8731958293792157,-0.3532520617505054,0.33577079149884476,10.154492049045725,0.33577079149884476
8.961910766686392,-3.0272570655590805,1.8411628464373313,0,9.636908765684568,0.929957000173984,-0.31413154769490403,0.1910532610823718,9.45939374014143,0.1910532610823718
9.596045016336175,-3.770383783624562,3.5524251693827558,0,10.905026291368284,0.8799653260746181,-0.34574733548409275,0.3257603488947685,10.310183016385762,0.3257603488947685
10.579794608019938,-4.3879520451587775,4.189777111752887,0,12.195917732777195,0.8674865508141435,-0.3597885900268019,0.3435393058197361,11.453653438903276,0.3435393058197361
6.697635255299403,-3.2384391916044706,3.345120713384607,0,8.15693808961819,0.8210967377359248,-0.3970165221342333,0.41009514558436294,7.439476218844262,0.41009514558436294
10.14077255484703,-3.551142340819644,4.156852101930979,0,11.520646654212984,0.8802259855039173,-0.30824158117209743,0.36081760223162995,10.744574441731082,0.36081760223162995
8.0317016959859,-2.694460927046882,3.4600079348509367,0,9.150956601903244,0.8776898465801315,-0.2944458207228826,0.37810341425193883,8.471620377512506,0.37810341425193883
10.544241311277888,-3.859072127076685,4.554482161589425,0,12.116797030266525,0.8702168803306226,-0.31848945867766176,0.37588169135892857,11.228243963881415,0.37588169135892857
8.172516413032083,-3.4920561336469893,3.025063193871314,0,9.3880502708888,0.8705232904828025,-0.3719681971106855,0.32222486102909637,8.88732133782842,0.32222486102909637
7.699770480408898,-3.4735683048350854,2.911640172054145,0,8.934751855023768,0.8617777645474873,-0.3887705401557395,0.32587812390301685,8.447019724099807,0.32587812390301685
6.298147200313261,-2.450940257817054,2.0336482060095604,0,7.057583958410131,0.8923942297290149,-0.3472775205028067,0.2881507634898448,6.75823692276337,0.2881507634898448
9.971800909590183,-4.566527346590636,3.367033462959778,0,11.47287669803675,0.8691630854270898,-0.3980281028708401,0.29347769975911514,10.967679124940869,0.29347769975911514
7.1801900893009565,-2.614358937233331,2.9206299582552506,0,8.180469529571363,0.8777234684812989,-0.3195854379486109,0.3570247340568341,7.64133511705824,0.3570247340568341
7.3028024029814915,-2.9705749726901067,2.656112887640041,0,8.319265248641408,0.8778181948428786,-0.3570717946726391,0.31927253288068946,7.883859372500569,0.31927253288068946
8.864288332773885,-2.7745979458883983,2.787339544499122,0,9.697590584480658,0.9140712072295225,-0.28611209369146495,0.287425986920894,9.28837991298156,0.287425986920894
4.822935123712188,-0.9730020429559825,2.4855859847604553,0,5.512311118829453,0.8749388450222935,-0.17651435522793946,0.45091540212053066,4.920105302037062,0.45091540212053066
8.674004134643347,-3.1282688686182603,3.031586250522075,0,9.706437504900062,0.8936341608612309,-0.3222880554311537,0.3123273857160932,9.220868388724353,0.3123273857160932
9.518512673093653,-3.138707270349004,5.034648961278935,0,11.216115949832778,0.8486460656851149,-0.2798390534109804,0.44887632972036073,10.022652684633254,0.44887632972036073
8.902408281146961,-3.6384850505852095,2.727331102904732,0,9.996488464077652,0.8905535491925726,-0.36397631664960084,0.2728289151440915,9.6172473539764,0.2728289151440915
7.542048401712733,-3.3293690176507047,3.131803116288343,0,8.819035259520362,0.8552010712930203,-0.3775207740616039,0.3551185616258293,8.244221743104076,0.3551185616258293
8.141546439812226,-3.001628304164506,2.9856327170075603,0,9.176521869905098,0.8872148462385154,-0.32709869237150835,0.3253555932557743,8.677243278137396,0.3253555932557743
8.300113916821605,-2.8431815773660674,2.809747861156284,0,9.212505389814531,0.9009616348228487,-0.3086219716635962,0.3049928051345054,8.773572391796256,0.3049928051345054
7.642298982908059,-3.7590571092400427,2.664721885910009,0,8.923899754251694,0.8563855705872278,-0.4212347978751197,0.29860508962356186,8.516762536004256,0.29860508962356186
8.46730766605612,-3.0482665149666515,3.26421496742749,0,9.572999906586093,0.8844988769122132,-0.31842333069171824,0.34098140596259224,8.99929040857776,0.34098140596259224
9.682937178002081,-3.6659517628744784,3.7948462997525425,0,11.027208765576308,0.8780950269327769,-0.3324460288009145,0.3441348015101458,10.353669625831095,0.3441348015101458
8.70069954617467,-4.779848980782622,3.4797208811811124,0,10.519390965394367,0.8271105784353253,-0.45438457383197256,0.33079109737705803,9.92719138890214,0.33079109737705803
10.956522513771109,-3.672200093626295,4.757116922916167,0,12.496423509976665,0.8767726625961293,-0.2938600865035145,0.38067827319698855,11.555537162867079,0.38067827319698855
8.861519118402358,-3.778506954147282,3.2984108060778308,0,10.182492314458228,0.8702701504443852,-0.3710787926431469,0.3239296141077742,9.63346437624336,0.3239296141077742
10.048563849246518,-3.8101410968556144,3.5010569316010365,0,11.302575381241383,0.8890508145536354,-0.33710379876600655,0.30975745027205553,10.746665092498793,0.30975745027205553
8.949144776787167,-4.1463431246371725,2.2632641148140924,0,10.119373399402168,0.8843576003743339,-0.4097430701472218,0.22365654724706585,9.863029633085514,0.22365654724706585
7.323355777889009,-3.395446981739451,3.055505141793443,0,8.631147764166133,0.8484799447291733,-0.3933946068953078,0.35400913358000413,8.072211596294034,0.35400913358000413
8.786146229586938,-3.02797395302957,3.3294113440409894,0,9.871675223878627,0.8900359898727321,-0.30673354667353664,0.33726913300262,9.293276700276943,0.33726913300262
8.885553705050807,-3.224167731507271,3.6915624787607606,0,10.14770692032585,0.875621830115437,-0.31772377314615435,0.36378292236313636,9.452424144431674,0.36378292236313636
8.98166095809594,-4.545397310716503,4.1630891851398,0,10.893217240185823,0.8245186669886633,-0.417268581952834,0.3821726027625594,10.066323573105212,0.3821726027625594
8.685101105880868,-4.052308179938484,4.166396549204948,0,10.450408748455551,0.8310776463326781,-0.38776551974939427,0.39868264002790255,9.583954445038302,0.39868264002790255
7.9263135086363965,-3.263547175989416,3.1217027546779623,0,9.122621010195715,0.8688636193236253,-0.3577422730092566,0.3421936251861229,8.5718834573914,0.3421936251861229
8.523173445526243,-3.527415972320921,3.16154619539374,0,9.751026785416862,0.8740795849595108,-0.36174815739367516,0.32422700347023836,9.224269565895636,0.32422700347023836
8.199842291380882,-3.074749348429846,3.1754144857724365,0,9.315296791602599,0.8802556134091983,-0.3300752962805888,0.3408817299986574,8.757368163962747,0.3408817299986574
7.854146967025758,-4.587897501871767,3.1986045306163584,0,9.641965515941271,0.8145794500136229,-0.4758259604109242,0.33173781064950253,9.095956687854287,0.33173781064950253
12.169751499222532,-4.672946325751051,4.514084283860387,0,13.795515062438758,0.882152746319511,-0.33872938448482776,0.3272138998384299,13.036076055170103,0.3272138998384299
8.95055837577277,-4.026089922758638,3.979740260539189,0,10.59057259290598,0.8451439520624445,-0.3801579081243904,0.37578140611632177,9.814371875176462,0.37578140611632177
9.934926656993678,-3.5723420304279165,3.786926696018535,0,11.21629212633227,0.8857585506060104,-0.31849580861407834,0.337627324018072,10.557669973161948,0.337627324018072
9.816584728870977,-3.946761020572596,3.4685615434079025,0,11.134324293508893,0.8816506929472017,-0.3544679422417654,0.3115197161474819,10.580276853306538,0.3115197161474819
9.554492415653707,-4.096013684957727,2.7294378854740975,0,10.747813014693106,0.888970844821357,-0.3811020604245863,0.2539528629445582,10.395463117540517,0.2539528629445582
8.887024614280824,-3.4220984536430197,3.617363025138662,0,10.187015243774768,0.8723874855995369,-0.33592748923530336,0.3550954758165512,9.52312786437624,0.3550954758165512
9.103255102950014,-4.109955017281665,2.8826316810046895,0,10.395698587483004,0.8756751676035353,-0.3953514987660645,0.2772908099197429,9.988042036028093,0.2772908099197429
7.692322286866819,-3.4590378641070942,4.1889879313291285,0,9.417238714144164,0.8168341613039269,-0.3673091411510907,0.4448212537118236,8.43426138499125,0.4448212537118236
8.790300501492156,-4.064954681286683,3.113590586856176,0,10.172889747264893,0.8640908060421609,-0.39958701826878607,0.3060674660013201,9.684690984613178,0.3060674660013201
8.002302326064147,-2.590613652078587,3.497956003859311,0,9.10954542318128,0.8784524314133717,-0.28438451445515495,0.3839879863772322,8.411190261316623,0.3839879863772322
7.32934958948623,-2.604164766093954,3.4124674299877733,0,8.49387858958406,0.8628978519276367,-0.3065931233450181,0.40175608751606606,7.778241416532863,0.40175608751606606
10.19055281779524,-4.641373266677027,3.590999189947643,0,11.759463751170939,0.8665831226173493,-0.39469259524822004,0.3053709987064735,11.197754798748662,0.3053709987064735
8.577470207126012,-2.810279613546613,3.253369717205982,0,9.59453392183711,0.893995505879002,-0.2929042344777614,0.33908574858454865,9.026110273005203,0.33908574858454865
8.30883621694989,-3.6774353734500242,4.292199778232922,0,10.049043195362554,0.8268285900874884,-0.36594880745931035,0.4271252192660185,9.08626932277487,0.4271252192660185
6.654803544467145,-1.5866118752978033,2.5919042461583053,0,7.3158536808455885,0.9096414218740858,-0.21687310114633374,0.35428596022149056,6.841326439974086,0.35428596022149056
8.2226192871399,-3.4167322175671773,4.000272812176156,0,9.761542376061394,0.8423483677440714,-0.3500197085602129,0.4097992569274892,8.904242078234766,0.4097992569274892
6.545393719972836,-3.0000628868329784,2.1460311227276554,0,7.5131887939894195,0.8711871749062364,-0.399306202611738,0.2856351918701269,7.200177516868071,0.2856351918701269
8.385326554887962,-4.00273748033155,3.422542442194255,0,9.901989978644757,0.8468324622598362,-0.4042356626258056,0.3456418810335621,9.291695688546854,0.3456418810335621
10.592160427023314,-4.369020774882671,4.115857028724232,0,12.174665667855269,0.8700165340055096,-0.3588616635624075,0.3380673556885686,11.45784469449447,0.3380673556885686
9.209882153717691,-3.9636329030864146,3.87293118124622,0,10.748577162139465,0.8568466332602945,-0.36875884531469166,0.36032035894835845,10.026580427832654,0.36032035894835845
10.892966191315569,-3.991017885114579,3.6876655437921775,0,12.173077399216703,0.894840789562095,-0.32785611675905285,0.30293617816226703,11.601074786606992,0.30293617816226703
7.643390997158266,-2.190840070773209,3.099518340429431,0,8.533945165854067,0.8956456654702825,-0.25672066414712574,0.3631987644859955,7.951176400454564,0.3631987644859955
8.241410107411205,-3.8885550202954144,3.5531620105299155,0,9.780933543250217,0.8425995403167389,-0.39756481353243533,0.3632743229281972,9.112721915235,0.3632743229281972
9.56635484128067,-4.1123510107286325,3.9954804582649084,0,11.153046215142824,0.8577347082353289,-0.36871998298950565,0.3582411819328898,10.412808256408782,0.3582411819328898
8.048286793964458,-2.1499749255629252,3.0641184187822654,0,8.876155371712052,0.9067311754832528,-0.2422191630866229,0.34520783948278855,8.330504936584097,0.34520783948278855
7.85925450826358,-2.8679972881604545,3.137123089636546,0,8.935033919918148,0.8795998514055532,-0.3209833688227037,0.3511036575522351,8.366199248796141,0.3511036575522351
8.466155829607603,-2.3808109711276937,2.778612730243227,0,9.223055031610215,0.9179340034935833,-0.25813691482571993,0.3012681503818503,8.794546913368578,0.3012681503818503
6.730377930014059,-2.8077640693358807,2.851358442345705,0,7.830183338633269,0.8595428279191255,-0.3585821618610997,0.36414963980184395,7.292566499516745,0.36414963980184395
6.538578935320556,-3.017842473885363,2.7684379381130926,0,7.715221079644322,0.8474908065268287,-0.3911543742858614,0.3588280762838127,7.2014156726718825,0.3588280762838127
8.189401552223178,-3.63499365902479,3.761546678996135,0,9.717443599166021,0.8427526713842739,-0.3740689227500899,0.38709220595002597,8.959881510639848,0.38709220595002597
9.077427041615774,-2.490313940301066,2.683145887116524,0,9.7877789650495,0.9274246051151879,-0.2544309540697185,0.27413225172918015,9.412828757451987,0.27413225172918015
10.797847866991223,-4.704172012229006,3.5733949428015936,0,12.308204755225905,0.8772886120867136,-0.3821980626566742,0.29032625097371545,11.778062356742963,0.29032625097371545
8.863358700027762,-3.390782772466301,4.069896075916563,0,10.325724639180201,0.858376434559992,-0.3283820643057075,0.39415113400115687,9.489812182304352,0.39415113400115687
6.759378193058984,-3.304985969123163,2.8503879702855666,0,8.045920543607858,0.8401000428010718,-0.41076542469075633,0.3542649911637617,7.524102990583151,0.3542649911637617
9.587926886844125,-5.181776066653226,3.9643456963376953,0,11.59720578382913,0.826744568093575,-0.44681246183270906,0.3418362811036332,10.898584549949991,0.3418362811036332
9.416531774424538,-3.0305718389996703,3.09902042739876,0,10.366260846588782,0.9083826766257025,-0.2923495640182485,0.29895258022747445,9.892190673965235,0.29895258022747445
10.126471996670022,-4.662812077539078,3.918951554959965,0,11.81716687112057,0.85692891596696,-0.39457952387338374,0.33163207371957404,11.148419240851432,0.33163207371957404
7.953083981153843,-2.9913486109444105,2.9095001749118348,0,8.98136418320162,0.885509575040835,-0.3330617209064195,0.32394858014483435,8.497041327631926,0.32394858014483435
7.788418773919418,-3.620709194848827,2.5224372914070203,0,8.951630687237051,0.8700558642375513,-0.4044748182039188,0.2817852276907973,8.588888290786143,0.2817852276907973
8.954727931648568,-3.439929143174399,3.9899900476213963,0,10.389431429102624,0.8619074097322401,-0.3310988831918706,0.3840431572073071,9.592719366264584,0.3840431572073071
6.070394866922529,-1.940678089396298,2.0374708133564816,0,6.690830486740923,0.9072707609245372,-0.2900504045412746,0.3045168783447876,6.373062473177416,0.3045168783447876
8.276471776148108,-2.7939211925623684,3.0476966875549767,0,9.251726097921345,0.8945867710034828,-0.30198918158527194,0.3294192516399427,8.735329455242391,0.3294192516399427
8.583964109082808,-2.247800522454726,3.594789819454589,0,9.573899981764168,0.8966005625119404,-0.234784207766554,0.37547810467017045,8.873389826597812,0.37547810467017045
8.354396543278128,-3.8831879966066793,3.7159956156474703,0,9.933967688433407,0.8409929250127872,-0.39090000273788494,0.3740696297989958,9.2127678044835,0.3740696297989958
9.89139301089557,-3.313817897069057,2.873623053727975,0,10.82029362844862,0.9141519953663001,-0.3062595166878278,0.26557717862412444,10.43173258624515,0.26557717862412444
9.513390045507405,-4.156433286030197,4.074426882542917,0,11.152644629878939,0.8530165141297676,-0.3726858896673474,0.3653327993278976,10.381740115182,0.3653327993278976
12.791552748069089,-4.145801108339163,4.340594697811835,0,14.129835486204795,0.905286743115849,-0.2934075992878177,0.30719357646093143,13.446616248578676,0.30719357646093143
9.785033484010706,-3.85901204834704,4.582176718761427,0,11.473238329018427,0.8528571623289767,-0.3363489834066047,0.39937954632843814,10.518500571492988,0.39937954632843814
9.195170928118902,-3.209351749700389,3.7395963783711714,0,10.432434429401162,0.8814022259468655,-0.30763210364933113,0.3584586515906652,9.739153302552946,0.3584586515906652
9.42748551691604,-4.1341934532241496,3.290261872975678,0,10.807167153010104,0.8723364211397634,-0.3825418256876557,0.3044518351933926,10.294126416570913,0.3044518351933926
9.607436336303769,-3.4209954736109243,4.473207043547561,0,11.136230252695025,0.8627189020251013,-0.3071951096541871,0.40168054557465904,10.198335304675778,0.40168054557465904
8.974968338041911,-3.9671207469217418,3.214671329382988,0,10.325803380147653,0.8691786980272304,-0.38419487577585604,0.31132408889011987,9.812650186851242,0.31132408889011987
9.974644213232514,-3.928371292095618,3.7311655334737255,0,11.351089129564446,0.8787389561811372,-0.34607879889375465,0.32870550930269143,10.720337130386053,0.32870550930269143
6.500388782740152,-2.19934009713679,2.9220476314089012,0,7.4585865651522765,0.8715309162075051,-0.2948735766388317,0.39176962094415857,6.862372125558892,0.39176962094415857
9.322196189404705,-3.677765735984987,3.3370958436778153,0,10.562457634112837,0.8825783271591504,-0.34819223549897726,0.3159393352641935,10.021442141854475,0.3159393352641935
9.764848206818963,-3.5370685499449146,3.5056314472937777,0,10.961412603924733,0.890838485846492,-0.32268364286173,0.31981566372554815,10.385716847152388,0.31981566372554815
6.403162801698881,-2.5575596614232046,1.8779113886321461,0,7.146198742713062,0.8960236109061688,-0.357890922643473,0.262784657444217,6.89504208013261,0.262784657444217
9.351416147624498,-3.2503621584739433,4.074414699731541,0,10.70582520278937,0.8734885887346652,-0.3036068772752867,0.3805792288360887,9.900193842914977,0.3805792288360887
8.851590106740955,-3.169268578182891,3.8914666239583786,0,10.175383197884676,0.8699023844705014,-0.31146429736835257,0.38243931931402464,9.40185677078798,0.38243931931402464
8.240532420268119,-4.122593416587064,3.426465533920529,0,9.830707863786932,0.8382440546955431,-0.41935875561650354,0.34854718311206173,9.21423632473017,0.34854718311206173
6.6362428323222655,-3.656616613315297,3.440737669613636,0,8.321612806266604,0.7974707531843866,-0.4394120104412544,0.4134700507842161,7.576975913009231,0.4134700507842161
8.598453466718626,-3.3688419544055876,2.235434888742983,0,9.501561307221996,0.9049516378095743,-0.35455667184349804,0.23527026942865295,9.23485236119608,0.23527026942865295
7.817430877532517,-2.9286224737853455,2.5656569322658127,0,8.733364220793899,0.8951225071913788,-0.3353372651987165,0.293776472319459,8.34799707228982,0.293776472319459
9.106320112813275,-2.9476339677873855,4.217209421889476,0,10.459372223664046,0.8706373497455683,-0.2818174843341404,0.4031990956730801,9.57149998720585,0.4031990956730801
7.518148556663057,-3.4460921491005436,3.357144522604295,0,8.92572283715998,0.8423013680598679,-0.3860854982807234,0.3761201847572138,8.270314916624832,0.3761201847572138
6.9191137472664215,-2.757243124132024,2.8936388150912635,0,7.990598869007709,0.8659067812930589,-0.34506088584001526,0.36213040630965904,7.4482564868017604,0.36213040630965904
8.31115243482071,-3.556190150499311,2.9657488805919416,0,9.514063779693034,0.8735649273825727,-0.3737824585630484,0.31172261919476324,9.040007919318132,0.31172261919476324
10.32022743627623,-4.804463681647379,3.401810318696573,0,11.881173302714165,0.8686202257413964,-0.4043761974711567,0.286319392203416,11.383758852186624,0.286319392203416
6.3815790311368525,-2.6972136574602485,1.9205436930246509,0,7.189436731862409,0.8876326851663827,-0.37516341794992625,0.26713409751741957,6.928168043908553,0.26713409751741957
6.9500611465747095,-2.847023693137056,2.97407537139029,0,8.077995925049816,0.8603694791455159,-0.3524418332904146,0.3681699519267769,7.51058545323939,0.3681699519267769
7.800044557815057,-3.3267845317717586,2.9059707371148717,0,8.963975476857579,0.8701546069545305,-0.3711282500003001,0.32418325380488344,8.479869717438831,0.32418325380488344
11.488853113238637,-4.93345644097963,4.682193625081632,0,13.351242468600876,0.8605081617128773,-0.36951290882343063,0.3506934756142059,12.503309094500404,0.3506934756142059
9.126251051786141,-3.431506586516565,4.595211739776433,0,10.778667201788604,0.8466956888947956,-0.3183609366793645,0.4263246701794362,9.750061318449964,0.4263246701794362
6.732964167410399,-2.338750460733274,2.9724678392416193,0,7.7225724504557585,0.8718550988813376,-0.3028460368274368,0.3849064360757399,7.1275914723847995,0.3849064360757399
9.533514311128743,-3.512046756961824,3.0300182128179385,0,10.602045930554679,0.8992145830696252,-0.33126122825409043,0.2857956127208943,10.159840921175027,0.2857956127208943
10.591209534324943,-4.076764999361429,3.9252193518425162,0,12.00837537804648,0.8819852145601329,-0.339493467768713,0.3268734719118241,11.348732627919029,0.3268734719118241
6.918864217797803,-2.3517058140903675,2.5965783960149382,0,7.755218995425,0.8921558787546059,-0.3032417028426532,0.3348169016950682,7.307612626593534,0.3348169016950682
9.939304914348565,-3.719333846162356,3.4765419252899297,0,11.167343918672023,0.8900330272563602,-0.33305447322559445,0.31131323174144226,10.612409078037013,0.31131323174144226
8.53012807318853,-3.299393689091613,3.2142702337710416,0,9.69436005089161,0.8799062577012493,-0.3403415668255648,0.33156084743060665,9.145987298297358,0.33156084743060665
8.890336709121229,-3.5749994883717706,2.54052628508196,0,9.913273018968017,0.8968114458373632,-0.36062756281718267,0.2562752261761506,9.582207895021215,0.2562752261761506
11.6081061774705,-4.968900120367364,4.65113512580176,0,13.456268256544329,0.8626541888257175,-0.36926286141410614,0.3456482166621288,12.626879956411068,0.3456482166621288
8.127152103863436,-3.0186937333851036,3.0365271412588557,0,9.18605520639366,0.8847271131363104,-0.32861698145293516,0.33055833794090184,8.66966626666277,0.33055833794090184
7.285902063109837,-3.4796814638853353,2.5941497187469977,0,8.48069364654864,0.8591162901014536,-0.4103062330640194,0.3058888608483965,8.074190483468628,0.3058888608483965
8.202834318601806,-3.048614286281416,4.120334909082873,0,9.672522922586312,0.8480552989383322,-0.31518294768395905,0.42598347319099933,8.751030792138186,0.42598347319099933
8.015126212708125,-2.876374068926509,3.350294000838183,0,9.15096966895236,0.8758772570192257,-0.3143245112794487,0.36611355102674475,8.51561953060573,0.36611355102674475
9.11772529375589,-3.2220323415642285,2.831116718426216,0,10.076191185950883,0.9048781553955259,-0.3197668922813484,0.28097092107319377,9.670284739472867,0.28097092107319377
10.21895250815546,-4.252204997097927,3.8747680832410794,0,11.726980233640079,0.8714052812028554,-0.3626001675094521,0.33041482172246683,11.068343945743706,0.33041482172246683
9.429599301141874,-3.2386281080942854,4.942654637562841,0,11.128157523546076,0.8473639307486238,-0.29103003810304356,0.4441575011051627,9.970258522357065,0.4441575011051627
6.9377700753339155,-2.868535779684528,3.3697059964968696,0,8.228977435888135,0.8430901809351161,-0.34858957896448933,0.40949267667218786,7.507406418832611,0.40949267667218786
9.075011984788237,-3.9748694701067544,3.639418061226384,0,10.554657438913766,0.8598111343083241,-0.37659862417247986,0.3448163128258699,9.907342218195396,0.3448163128258699
8.721635878893055,-2.1167036151645595,2.717759796557459,0,9.377290915303279,0.9300805486006383,-0.2257265594384198,0.28982355576941826,8.974818471615198,0.28982355576941826
8.364776797714205,-3.3354454099487545,3.107190975101993,0,9.526243893270916,0.8780771195269166,-0.35013227115724216,0.3261716800361189,9.00525885015673,0.3261716800361189
7.720953280170683,-3.4441034617593647,3.079210874509019,0,8.997583443323872,0.8581141068382714,-0.3827809415110075,0.342226431564107,8.45428697229289,0.342226431564107
8.73000423307852,-3.7991194192102746,3.5653745088690267,0,10.166522397530166,0.8587011262769035,-0.3736891801008794,0.3506975511837943,9.520834116346608,0.3506975511837943
8.146111750755262,-2.8856771879867384,3.4383751845725077,0,9.301004967149735,0.8758313515073429,-0.31025434328641643,0.36967781403370087,8.642121816374727,0.36967781403370087
9.872135777159928,-3.8828779443454158,3.396927455948149,0,11.138892318105041,0.8862762557740018,-0.3485874388097123,0.30496097447919646,10.608289491400823,0.30496097447919646
6.827517367880622,-1.392240494323681,3.4781932311163803,0,7.787885152962259,0.8766843929746005,-0.17877003409508652,0.44661588644426636,6.9680217424134225,0.44661588644426636
6.234042971901577,-2.489270426362102,2.9934225381083825,0,7.349852891230657,0.84818608809703,-0.3386830271572006,0.40727652408933657,6.7126566299101285,0.40727652408933657
9.232378948869217,-3.768790314074515,3.8558675843254857,0,10.691506737351729,0.8635245878501934,-0.3525031977866984,0.3606477252504242,9.9719908487215,0.3606477252504242
7.649624918583158,-3.5831608710909424,3.0293294821935004,0,8.973998012859838,0.8524210622312555,-0.3992825567775069,0.3375674340302325,8.447236425194076,0.3375674340302325
10.367766529133203,-3.3303960963709334,3.343968753553907,0,11.391411149900716,0.9101389101580769,-0.29236027499542583,0.2935517566305253,10.889541815950636,0.2935517566305253
10.084941561931723,-3.6875545379767076,4.1861611671889785,0,11.525105209750212,0.8750411712857845,-0.3199584273518861,0.3632210805023711,10.737974891856028,0.3632210805023711
10.750116387010124,-4.243613871548926,4.000150457167517,0,12.230063969785423,0.8789910186543967,-0.3469821484198975,0.3270751867733444,11.557389888078799,0.3270751867733444
8.909112340924535,-3.918151291942662,3.5477745802627183,0,10.35909729282065,0.8600278662407174,-0.3782328885604857,0.34247912535018815,9.732635421599117,0.34247912535018815
10.37289221795812,-4.548203858213868,3.937840496321721,0,11.991231758068848,0.8650397579863508,-0.37929413341155727,0.32839332737205795,11.326210809500573,0.32839332737205795
7.09815237140458,-3.1681974722861597,2.893777538548516,0,8.294286633200276,0.8557881690502684,-0.38197347311395474,0.3488880559016777,7.773110208344976,0.3488880559016777
12.01222086569573,-5.35936749884436,4.37035768478434,0,13.860602310393249,0.8666449405801415,-0.38666194865324766,0.3153079200250386,13.153564920352395,0.3153079200250386
11.016994364409065,-4.7417408075529695,2.993725964151676,0,12.362065598429337,0.8911936501783998,-0.38357188528067926,0.24217036710531967,11.994093159194412,0.24217036710531967
11.269639399863454,-4.819259191390433,4.635702031312662,0,13.104188821894786,0.8600028245192771,-0.36776478551181296,0.35375726756678155,12.256836107118177,0.35375726756678155
5.230509048199506,-1.9064567724706836,2.524605803514799,0,6.11280923894545,0.8556637126634508,-0.31187899015798104,0.41300255002728187,5.5671179553334635,0.41300255002728187
7.37549611403979,-3.366097914279199,3.0200036241738677,0,8.651530499671958,0.8525076706739285,-0.38907542594999023,0.349071603491241,8.107315097905769,0.349071603491241
7.282382142730074,-3.4621829589478397,3.2785372872102396,0,8.704516486147325,0.8366210982906993,-0.39774558006268124,0.3766478347680563,8.063485630543573,0.3766478347680563
9.644110576695654,-3.8459446542704243,3.126026136080893,0,10.843071451517096,0.8894260837270707,-0.3546914425001159,0.2882971075177706,10.38268554369457,0.2882971075177706
8.234020137635865,-1.9598275759886767,2.701767588347436,0,8.884793743022025,0.9267542247790201,-0.22058222539244585,0.30408894865672725,8.464042282184003,0.30408894865672725
11.045585139865072,-4.035859519057405,5.039559529314181,0,12.794149967429478,0.8633309104539348,-0.31544569426899294,0.39389561183381205,11.75980923057744,0.39389561183381205
9.325123355320915,-3.6418263106174042,4.213261374713852,0,10.861509834286965,0.8585476142445614,-0.33529650722417104,0.38790752289462377,10.011035134722922,0.38790752289462377
9.757334197781585,-4.646938514685768,3.870616509598576,0,11.4796027967367,0.8499714119512303,-0.4047995908017611,0.33717338292391735,10.80738674270834,0.33717338292391735
7.57830144778553,-2.394508325147153,2.773083760494008,0,8.417500608578706,0.9003030472088229,-0.28446785292855065,0.3294426563709204,7.947598565145782,0.3294426563709204
8.621318344102674,-2.977934087221511,2.265728662010704,0,9.398337501284677,0.9173237652855315,-0.31685753856088394,0.24107760140567386,9.121141453688628,0.24107760140567386
7.96649982431199,-2.5124906414841766,2.8547073391860445,0,8.82763176999988,0.9024504002744667,-0.28461661144755823,0.32338314664274714,8.353306451597986,0.32338314664274714
6.523488478162414,-2.7779875829696725,1.8560891604430776,0,7.329268988607645,0.8900599075163284,-0.3790265560300321,0.25324342213774886,7.090353794829384,0.25324342213774886
7.745706461868239,-3.405839548623718,1.9888471980282343,0,8.692020754778579,0.8911283900938585,-0.3918351836368203,0.22881298309542503,8.461424916903583,0.22881298309542503
10.448949033462368,-3.5591361985322023,3.301236903168033,0,11.521551608808375,0.9069046764043491,-0.3089111882996034,0.28652711156058136,11.03847753920786,0.28652711156058136
8.383225405734557,-3.021256930135341,3.6421590030288606,0,9.626618505196324,0.8708380207660041,-0.31384404902972995,0.3783425094764969,8.911030335558518,0.3783425094764969
7.736499869971149,-2.818416761871471,3.7633462908266515,0,9.053158486757006,0.8545636179117078,-0.3113186150440491,0.4156942901564894,8.233887495081632,0.4156942901564894
9.956255612903119,-3.7440810653265473,4.476783723065465,0,11.540656885823505,0.8627113440252557,-0.32442529938878617,0.3879141167921496,10.636971789621406,0.3879141167921496
8.748848071936074,-2.932922616799188,3.969696416317247,0,10.045041926227771,0.8709618273561095,-0.29197714039811806,0.3951896314093328,9.227371113266864,0.3951896314093328
7.833402891048855,-3.0482997576326634,3.415987766206645,0,9.073219091631668,0.8633543191163201,-0.3359667309746928,0.376491268612399,8.405613140388743,0.376491268612399
9.059434163781944,-2.675499443449575,4.047803117707396,0,10.276981790366282,0.8815267311531411,-0.26033902735505554,0.3938708076238722,9.446250295212298,0.3938708076238722
9.365800222695961,-4.038321070218261,3.70758909479594,0,10.85230241808024,0.8630242562253219,-0.3721165255669898,0.3416407829382816,10.199326001144414,0.3416407829382816
10.885826861649148,-4.777260480038324,4.010794524711673,0,12.546310887085307,0.8676516116665499,-0.38077013418787936,0.3196791918204603,11.887953741327317,0.3196791918204603
6.84202706227196,-3.049739441545109,2.1507763977304686,0,7.79359250251206,0.8779041321529978,-0.39131369013226003,0.27596726375381087,7.490944198308898,0.27596726375381087
9.119254899069144,-3.886044550478399,4.178717734787547,0,10.757501293029316,0.8477112528890209,-0.3612404446557206,0.3884468726483247,9.912726777355434,0.3884468726483247
9.825735344187537,-4.015415713949579,4.099700310980955,0,11.378760084020874,0.8635154684371771,-0.35288693006089517,0.36029411646864234,10.614548431744488,0.36029411646864234
7.676547136712202,-2.777383949202452,3.1290082515834006,0,8.74265006630877,0.8780572341897831,-0.3176821590864714,0.35790157765109976,8.16353094827549,0.35790157765109976
6.675365598558153,-2.521719557850435,2.33540257981919,0,7.50824084674201,0.8890718524905524,-0.33586023801363063,0.3110452404883326,7.135795358813132,0.3110452404883326
8.565148876978192,-3.237970233897927,3.031828164495244,0,9.64563157804798,0.8879821717917563,-0.3356929204373786,0.31432137335570987,9.156758516003892,0.31432137335570987
9.677103606944945,-4.056203677528367,3.984688997837574,0,11.223941772061602,0.8621840529352162,-0.36138851750148804,0.3550168985869276,10.492812897080626,0.3550168985869276
8.716275717110488,-4.062190680802565,2.563030192073724,0,9.952084167116485,0.8758241561009567,-0.4081748719755395,0.25753702933325734,9.616384741881388,0.25753702933325734
8.31901367729739,-3.556060291075767,3.4582632226355896,0,9.685614997193559,0.8589040220685886,-0.367148631460795,0.35705148549035176,9.047184830477761,0.35705148549035176
9.377803190090317,-3.937690893143325,4.124511811246714,0,10.975436206507952,0.85443557901869,-0.3587730655122798,0.37579479609211885,10.170968599008258,0.37579479609211885
9.240564589534262,-3.3616038189551527,2.8147350780988223,0,10.22795911845801,0.9034612362556442,-0.3286680930204926,0.2752000712458047,9.83302670437584,0.2752000712458047
9.935780933424043,-4.321189184338669,3.6762647329602887,0,11.441474603854427,0.8684003834677794,-0.3776776450548549,0.32131039575281856,10.83477820372149,0.32131039575281856
8.529619585564477,-3.2370254869912634,4.106655773794502,0,10.00486711167699,0.8525470144035491,-0.3235450756975303,0.4104657990910741,9.123198138694356,0.4104657990910741
9.394991470222903,-3.668728396303791,4.629050764544553,0,11.097456634388683,0.8465896087496122,-0.33059182091644074,0.4171271776093361,10.085902675090956,0.4171271776093361
9.695106447669486,-2.6166825655421544,4.120854707370245,0,10.854656152993066,0.8931749021820609,-0.24106544957857828,0.3796393593024095,10.04201756025425,0.3796393593024095
9.493798528095683,-3.479750929091334,3.5505978774346416,0,10.716698293216393,0.8858883835616798,-0.3247036385538628,0.33131453179774123,10.111423095716239,0.33131453179774123
8.973716240098163,-3.6528649076634077,3.99746277140215,0,10.480969125046904,0.8561914583502797,-0.34852358251241966,0.38140201766735576,9.688705031707814,0.38140201766735576
8.596616443202484,-3.497060950874936,2.616833012001007,0,9.64256524885219,0.8915279514676645,-0.3626691508560143,0.271383490229688,9.280692299913495,0.271383490229688
9.901867826587026,-4.041597002876085,3.7929074033841315,0,11.347582974338737,0.8725970851219127,-0.35616368807486976,0.33424804312613166,10.694928367635578,0.33424804312613166
10.929874166469485,-4.95729596664317,5.15178556237676,0,13.060544669977103,0.8368620484561037,-0.37956272819454023,0.3944541129451833,12.001538759498871,0.3944541129451833
11.195530253627014,-3.9264403612656142,5.086005010757339,0,12.90830269787249,0.8673123427352095,-0.3041794458316165,0.39401036137737927,11.864098430578423,0.39401036137737927
7.442069058232533,-2.4273512886373316,3.87369013039619,0,8.733951074529799,0.852085040862584,-0.2779213288377632,0.4435209331195772,7.827926043720097,0.4435209331195772
8.938106308348997,-2.7197218036708417,3.433604128424759,0,9.953706263470218,0.8979676586551042,-0.27323709698488224,0.3449573493067578,9.342731456523339,0.3449573493067578
8.384291944519457,-2.474930304291063,3.6665949514988467,0,9.47974419277171,0.8844428471933311,-0.2610756423341247,0.38678205623888245,8.741946660900656,0.38678205623888245
9.4176554104318,-3.6154711271570386,3.9024254006564676,0,10.816320488439233,0.8706893828171639,-0.33426072489451,0.360790474434211,10.087807735129648,0.360790474434211
5.218261914668267,-2.004246676630676,1.5412959540564266,0,5.798521826194427,0.8999296839920694,-0.34564786280127957,0.26580842501854995,5.58992505771432,0.26580842501854995
9.046751229851246,-2.744830728516754,4.395261536725197,0,10.425743499589888,0.8677319972630357,-0.26327433900754665,0.4215777548045462,9.45398347486523,0.4215777548045462
7.968204728700044,-3.221870488447996,2.9469193961166935,0,9.086092117627834,0.8769671961877882,-0.3545936412197801,0.3243329869393912,8.594925016706654,0.3243329869393912
8.521697723708968,-4.089621273216399,3.8222270701855363,0,10.195771379776513,0.835807062191675,-0.4011095503110469,0.3748835598419742,9.452213193353753,0.3748835598419742
9.062310895945028,-3.2998068738755535,3.417402376725111,0,10.231952071041322,0.8856873872184531,-0.3225002278123188,0.3339931963126677,9.64438718528245,0.3339931963126677
9.386429050888019,-3.57098198314537,3.76799011180142,0,10.726355957823547,0.875080883740557,-0.3329166025429896,0.351283336728457,10.042756725685601,0.351283336728457
7.879721832316511,-3.2618247986604163,2.7735575117556337,0,8.967839117806342,0.8786644952930422,-0.36372472295848945,0.30927824142702554,8.528160245436382,0.30927824142702554
7.644239755487462,-3.5789263760640684,3.17819796789519,0,9.019094065802575,0.8475618171532209,-0.39681661483431857,0.35238549955320536,8.440563692352667,0.35238549955320536
8.194796960104641,-3.323447170060167,3.5197275978925426,0,9.517798100027527,0.8609971417738879,-0.34918235658419305,0.3698048183941161,8.843076292191604,0.3698048183941161
