timestamp,n1_accx,n1_accy,n1_accz,n1_activity,n2_accx,n2_accy,n2_accz,n2_activity,n3_accx,n3_accy,n3_accz,n3_activity,n4_accx,n4_accy,n4_accz,n4_activity,n5_accx,n5_accy,n5_accz,n5_activity,n6_accx,n6_accy,n6_accz,n6_activity,n7_accx,n7_accy,n7_accz,n7_activity,n8_accx,n8_accy,n8_accz,n8_activity,n9_accx,n9_accy,n9_accz,n9_activity,n10_accx,n10_accy,n10_accz,n10_activity,n11_accx,n11_accy,n11_accz,n11_activity,n12_accx,n12_accy,n12_accz,n12_activity,n13_accx,n13_accy,n13_accz,n13_activity,n14_accx,n14_accy,n14_accz,n14_activity,n15_accx,n15_accy,n15_accz,n15_activity,n16_accx,n16_accy,n16_accz,n16_activity,n17_accx,n17_accy,n17_accz,n17_activity,n18_accx,n18_accy,n18_accz,n18_activity,n19_accx,n19_accy,n19_accz,n19_activity,n20_accx,n20_accy,n20_accz,n20_activity,n21_accx,n21_accy,n21_accz,n21_activity,n22_accx,n22_accy,n22_accz,n22_activity,n23_accx,n23_accy,n23_accz,n23_activity,n24_accx,n24_accy,n24_accz,n24_activity,n25_accx,n25_accy,n25_accz,n25_activity,n26_accx,n26_accy,n26_accz,n26_activity,n27_accx,n27_accy,n27_accz,n27_activity,n28_accx,n28_accy,n28_accz,n28_activity,n29_accx,n29_accy,n29_accz,n29_activity,n30_accx,n30_accy,n30_accz,n30_activity
0,8.926181435182936,-3.2897065817192734,4.020647368425337,0,8.779867338203717,-3.2064442062556724,3.750112079735192,0,8.878507653322488,-3.3624072109275365,3.7317441620640106,0,8.71365467763207,-3.335295189458407,3.9027004725123158,0,8.79857638007326,-3.2343496826134626,3.7742459885661255,0,8.808882467208662,-3.3792816371891363,4.0806493416246665,0,8.97218282613524,-3.3428636549186197,4.0080843665706185,0,8.783055376217938,-3.346486999644556,3.726814449784487,0,8.766149316380332,-3.4625694759095627,3.9853054300518513,0,8.745967724649839,-3.415369946434756,3.995377823470777,0,8.789008326417218,-3.251238872373009,3.9794232790281376,0,8.86618063043228,-3.369365826090367,3.7959431101644854,0,8.591002475915444,-3.4417837384269543,3.873421279830595,0,8.94087672799179,-3.2281354373406286,3.973733993112957,0,8.71954827898964,-3.2158070179356573,3.928765106954944,0,8.924244953734721,-3.199803937004063,3.785027694409311,0,8.698652225432049,-3.2913723889490503,3.971671652321243,0,8.707090644795603,-3.3288757955111374,4.005224496007368,0,8.78213730119837,-3.3691019323910862,3.8891019335970856,0,8.898141716081602,-3.286320459005451,3.8724773832299295,0,8.852296899021054,-3.3465240374874496,3.973520634755014,0,8.841452850240483,-3.2587491640458253,3.755852182013533,0,8.850107437820588,-3.1176031211883646,3.8652640815107073,0,8.587429384126777,-3.4335209388760934,3.9801102345500787,0,8.838640706488782,-3.288843219095079,3.9540731396129445,0,8.897157890876688,-3.2221406407677935,3.7249487518431748,0,8.756913553235433,-3.2199218776510046,3.833493540343367,0,8.780382068625839,-3.516420153736183,3.7869230467946844,0,8.673406194271637,-3.223495233658854,4.008726103216647,0,8.836706650814884,-3.3636309277470016,3.911392034651705,0
1,8.575556587355754,-3.927737422203451,3.2575556771843317,0,8.784779077550535,-3.7593565723502778,3.210991773175213,0,8.578276456639,-4.039322490342782,3.1934658776894715,0,8.59809547548353,-3.9147822500954166,3.2558161587615406,0,8.682112148428882,-3.7852714722392697,3.153958593662118,0,8.687789287625083,-4.0116200441038234,3.3667719826131117,0,8.735179978953967,-3.914389219862465,3.2825621384675836,0,8.555726850595294,-3.8810045296726723,3.233373142639089,0,8.541698635015486,-4.047061071079134,3.3258704461897572,0,8.351929194867484,-4.042102463824698,3.1697501504876726,0,8.699154532394756,-3.8762481532619537,3.499459909133703,0,8.642637945356789,-3.959993605689338,3.282472356207068,0,8.504297599365309,-4.09235947718524,3.3061136828142224,0,8.809893520205462,-3.8848960710644853,3.267398673094257,0,8.590604388451277,-3.82221987442494,3.1843023987344794,0,8.624600236240152,-3.8280730722472063,3.10478146716867,0,8.65680776012885,-3.8708284801126838,3.2139543537343296,0,8.591699608085912,-3.9646760890327597,3.403220518862116,0,8.623755740864086,-3.83419539673886,3.09983924201062,0,8.705721399680451,-3.9656386863116335,3.188243183681764,0,8.769199593089343,-3.865898944621642,3.179867663561131,0,8.604178093755186,-3.8847661391644537,3.184623110991582,0,8.642232609060503,-3.8698512775726974,3.1214338304632694,0,8.497721716615844,-4.0261285945653045,3.293490114239871,0,8.690034123261878,-3.9769031840668965,3.277086271352008,0,8.616174812113705,-4.114171892008745,3.0741032526846266,0,8.586458543878035,-3.8028021494986772,3.3542148406038654,0,8.575102009542322,-4.050395362253353,3.138407831082828,0,8.617416175134327,-3.888211625236366,3.1890564740677525,0,8.722996119726325,-3.933920184438787,3.2522598747523648,0
2,8.403297500147799,-3.404018321551061,3.530546506660231,0,8.493745223800106,-3.3343334268326528,3.257936161600651,0,8.507804690164216,-3.4849626890178627,3.1887220600972457,0,8.436522876855042,-3.5048403615921186,3.5050816883965976,0,8.50034803613412,-3.253724617295839,3.267568963245427,0,8.402759702295093,-3.421950853204706,3.460488532189283,0,8.5533333681309,-3.4182157638720487,3.6086985526885758,0,8.42661607239866,-3.421120036807455,3.2312751238175257,0,8.349741308605848,-3.5200793558950085,3.3079071973326455,0,8.355591016839886,-3.5180731192698325,3.2969462829220846,0,8.463282531469495,-3.335488890279053,3.51851363446809,0,8.408530117756523,-3.628895695706437,3.309093412146942,0,8.296008838709282,-3.6152072852602233,3.3584006606175962,0,8.497223154627266,-3.256292493725683,3.4835976559622486,0,8.398927388773169,-3.368863921288726,3.297572080228945,0,8.492121205535845,-3.3024432278616462,3.269240321688272,0,8.34107718044422,-3.417918745815674,3.3879475907364602,0,8.195217023271434,-3.434724091632892,3.5011416582035153,0,8.299120511032637,-3.200512095693969,3.2852367431702936,0,8.56278866852611,-3.4539161191423275,3.360521342495601,0,8.6300530550788,-3.3786351834260566,3.300455795880854,0,8.48450185115654,-3.4984668720673606,3.301466075003862,0,8.388640987826541,-3.3988229350682793,3.237286660669566,0,8.216887718056105,-3.5140946419969854,3.5694603076318074,0,8.496048936436612,-3.3543699306842982,3.3286069770940854,0,8.459115188194502,-3.601878522358726,3.2944039099046103,0,8.342125020699934,-3.460945424825041,3.455287673414123,0,8.339441152150195,-3.5141587674861983,3.2260238059834254,0,8.300093545357157,-3.3169018792092446,3.3945384360873962,0,8.489365927660975,-3.4139497699716856,3.411420204427758,0
3,8.622038317044668,-3.5311582702911513,3.47132457165104,0,8.687286511742593,-3.361007082275284,3.338766251420026,0,8.644270058287752,-3.6195524921642757,3.3132036930249606,0,8.468549895918597,-3.6453515764040936,3.4157282042220314,0,8.504023468848365,-3.4468865625905067,3.2249130011888933,0,8.441307511059959,-3.6087883236067286,3.517232393638692,0,8.680014470257992,-3.5016800441250773,3.38076803142245,0,8.452736392909108,-3.675599760919233,3.375244977359178,0,8.54881311090382,-3.7805007370185972,3.377917762111303,0,8.49574174109119,-3.68397847024003,3.3911483235047317,0,8.550567860065287,-3.4079072979814997,3.532325606241722,0,8.526476232069504,-3.6793633504331993,3.308866263768362,0,8.406866130992315,-3.6330088356153234,3.465272587869489,0,8.642276511030884,-3.4586281930788725,3.4485730315439134,0,8.5902731885388,-3.5547802501508876,3.3188303685981695,0,8.67345111033539,-3.54392962484271,3.31805200482947,0,8.44313817498394,-3.531992665320227,3.466551029648161,0,8.47774743556292,-3.5422897780330542,3.570896899162468,0,8.494028742087359,-3.4348694572316862,3.275058340652057,0,8.618246204053802,-3.665999187015619,3.254883436921514,0,8.704349788051166,-3.4091112687167704,3.356471919651825,0,8.62983585929384,-3.47302503149628,3.2609159133839367,0,8.462118708963914,-3.4045258362604645,3.31317214477026,0,8.369536602894463,-3.6349302134716805,3.3491629787311084,0,8.69701136013279,-3.5512401046092044,3.454694142629298,0,8.625342298591773,-3.6671743539057573,3.2492867234425296,0,8.447653808031395,-3.4096716557826303,3.377202801084475,0,8.536444762341983,-3.5945926050898116,3.3134676399297804,0,8.515511007925396,-3.4545731880480144,3.455801407495914,0,8.624799833691243,-3.5539033528217963,3.4613925086038044,0
4,8.506572754814403,-3.431923817563075,3.441122195932565,0,8.695674373003563,-3.2473586543225537,3.398301492273976,0,8.512467716714212,-3.457158044906394,3.2615180965095307,0,8.367424516508851,-3.4296274081151528,3.4582076332949225,0,8.51936722522041,-3.2361594421612545,3.233943180315225,0,8.427953703062729,-3.497767828046372,3.622014023585255,0,8.375704020298265,-3.4404812550685824,3.463256927566035,0,8.293425984084976,-3.4250578416513457,3.3493010728976165,0,8.343984018910852,-3.4889036921902488,3.288327680285778,0,8.304105399285168,-3.4604368417278355,3.4419147477135184,0,8.269969942793137,-3.3867029175776704,3.4770128526374005,0,8.630564965764167,-3.5684090991488335,3.390390468310901,0,8.307190091124887,-3.5003210012662813,3.372982658144644,0,8.573980649233954,-3.3384437319626117,3.404659841365553,0,8.421067252559459,-3.40523127541635,3.2792070689537347,0,8.556171310870326,-3.3444898209274303,3.161310550404348,0,8.435784333561802,-3.463777936098377,3.505378942850816,0,8.295703232014523,-3.4300963495591277,3.606429776246499,0,8.468583459916372,-3.3309921548556827,3.2235531224405722,0,8.526089605936502,-3.4794379847148234,3.364148343648946,0,8.570008882251464,-3.2747831929216558,3.3862460580183584,0,8.51191228003319,-3.306487546016791,3.252712389159172,0,8.33932846624629,-3.280592526088066,3.2923708461835575,0,8.287979238996655,-3.4920730723859688,3.5407836206444814,0,8.53818535720063,-3.4782525651106444,3.438306051297725,0,8.525560802914981,-3.4609280076242155,3.233402549169595,0,8.316278104732545,-3.309033720882346,3.495794961145833,0,8.426883336660808,-3.5765500946001136,3.3510468023993307,0,8.37076462041317,-3.282055747840214,3.4362966020296284,0,8.546663320065107,-3.3728536759851986,3.4703096845607257,0
5,8.724001009007946,-3.5335063816655796,4.279736435733385,0,8.732355203537317,-3.4231150926758063,3.9758197545697365,0,8.657053495225805,-3.5938952207818575,3.984761297209375,0,8.595463558502642,-3.5562135829675974,4.14652487548273,0,8.654709250562382,-3.40656720674645,3.9630043487301503,0,8.664695326958716,-3.7231400679217876,4.29181862462273,0,8.7431400843136,-3.536220147849608,4.092891623286066,0,8.603411376738528,-3.6441825587197134,4.060197484027758,0,8.725810624884351,-3.74072980997879,4.127120654312771,0,8.485169083481505,-3.7032007249649888,4.1571244257689095,0,8.501985456970905,-3.44068804536531,4.1614253083910056,0,8.716030087460284,-3.7693025687021833,4.03082873529001,0,8.513031400292729,-3.6489295930344348,4.118650737764797,0,8.732285076222764,-3.4097970345050035,4.08328572280205,0,8.60075080373818,-3.4534163167725693,4.0508723714277,0,8.702508985167631,-3.5446816692334453,3.959954730280174,0,8.619172474977333,-3.644159301635301,4.139146455242916,0,8.601968962790522,-3.622278503341606,4.263859413565874,0,8.546800549832838,-3.5595712492208014,3.9627066330596157,0,8.742348104736292,-3.693156099630227,4.126895143720326,0,8.81275340673897,-3.5772557281260267,4.144127664671038,0,8.690499878862969,-3.37966208602718,3.9923823765966846,0,8.59269589418896,-3.462851002263739,3.9178946165699915,0,8.48748215473194,-3.670387493209713,4.185240890597771,0,8.777831971432704,-3.588051669595257,4.086265829350351,0,8.656778151331238,-3.5488295888598618,3.9237547025060833,0,8.677729534354022,-3.4240792170367,4.127948319520819,0,8.601536648433274,-3.721641388450744,4.077721328623072,0,8.589073836241628,-3.454918303321764,4.10566310142453,0,8.76565925490227,-3.6456220818955525,4.117169210610474,0
6,8.932195417061719,-3.2112502101773828,3.144699391632401,0,8.986649620345473,-3.052384902162588,2.866134158003977,0,8.908717207046001,-3.2978023377461474,3.0037731539347168,0,8.811877002051578,-3.3355158310442183,3.123762416354247,0,8.994491279958533,-3.1148710194356726,2.88344772497128,0,8.879167272358176,-3.2226001015377386,3.1634894575045416,0,8.941424718775906,-3.194295679361299,3.1072146321449385,0,8.832375938987296,-3.2215568683516924,2.9487213537977106,0,8.8807288278666,-3.3810199195899875,3.0551779393238476,0,8.760997680489709,-3.309225394985419,3.042873156070153,0,8.936077198622087,-3.134624652211825,3.1099657943601398,0,8.905055838692551,-3.2867701820730124,2.911281018291443,0,8.708526872864777,-3.381093020470373,3.0063680698248674,0,9.064054847784654,-3.138939948778945,3.016303313357492,0,8.966739618583617,-3.2719051168755295,2.915298343349476,0,8.996948037929608,-3.24446344101401,2.803178766033201,0,8.783123012907685,-3.228241885302409,3.1559962533513297,0,8.984682299085403,-3.267603209594192,3.1884925626813327,0,8.933941769307244,-3.0472601800313783,2.9311350534582994,0,8.97492310859652,-3.1938937004700505,2.9996254673611786,0,9.076892220832915,-3.1968263257035416,2.918731997554048,0,8.94277915013871,-3.0532695713310884,2.9199231358093005,0,8.820433429664524,-3.155719363798347,2.9426183864428936,0,8.77463269982721,-3.3976863335975804,3.188411976753245,0,9.041673372841071,-3.1724500512580316,3.0062195958067432,0,8.929450157030006,-3.296704304456132,2.893123304973886,0,8.8815278589218,-3.121443870956046,3.043896319069598,0,8.847395404288708,-3.3898056894652293,2.9853824907759083,0,8.802834046520273,-3.114738230560262,3.0266425157146766,0,8.838592405678616,-3.139640931667722,3.0495645748666846,0
7,8.916518437629179,-3.623049878872983,3.043370738563499,0,8.899415155909617,-3.3052126565001014,3.063376694966008,0,8.909412321613447,-3.484417753953645,2.9818487052805667,0,8.695482625273629,-3.5924156006522483,3.1381734888175927,0,8.85962652933244,-3.34656198081809,2.902758855600806,0,8.811965348200673,-3.6485220083761245,3.0646370859102077,0,8.83672667968065,-3.5782132338006836,3.0838049758819923,0,8.618750301353474,-3.5982819993049855,3.046512296083095,0,8.810953556542291,-3.58673273598786,3.125661135992961,0,8.53278592720553,-3.725119447007978,2.990115835839967,0,8.849766313529376,-3.440071926313759,3.1338840958805667,0,8.914264527276892,-3.6208729844900858,2.929120013359327,0,8.579028757800257,-3.640185433625761,3.0456312220056305,0,8.946284400634795,-3.5275959519641784,3.2030806175660906,0,8.776299093985788,-3.3978833160221695,3.030300288501451,0,8.959374135073848,-3.4946543434853026,2.865288400098762,0,8.723099852190083,-3.6076876783923977,3.1347648820550487,0,8.794914279804885,-3.457246833344483,3.2220916981768397,0,8.711548618637245,-3.4698261422678973,2.9393099009993535,0,8.891431775857903,-3.6246997075728435,2.9892207166135387,0,8.841772858249962,-3.5449636157051123,2.858529201262385,0,8.80785200478301,-3.401586018984177,2.8118485594270934,0,8.786859307851442,-3.477372258800412,2.9950994836820306,0,8.644463774153305,-3.686733890845979,2.975941571246795,0,8.877528291810869,-3.5196863400040463,3.0770474517220383,0,8.852525218596096,-3.6393259804815097,2.8599659945156226,0,8.821950666107703,-3.3322630987601474,3.0450543857638337,0,8.74998144289723,-3.734955644657924,2.8308733508624875,0,8.744349546700974,-3.5052338144820965,3.1171257154403507,0,8.796150466326308,-3.486613732441735,3.0182755241382253,0
8,8.60442429910084,-3.6969790478595463,3.5070180594888223,0,8.645532370742876,-3.6328813700434215,3.265148871993023,0,8.451185256366573,-3.778351895242554,3.296669647778967,0,8.448626808360933,-3.8297491823108403,3.4158012850030066,0,8.599402896457898,-3.661046080218351,3.172962156416055,0,8.46256182539078,-3.8341104858281,3.3535770066949584,0,8.668963083607274,-3.6665570331113146,3.2808466720376606,0,8.358585301508674,-3.749140187212331,3.3170582029392874,0,8.368059793209198,-4.022703360255964,3.205359852613237,0,8.367542630450908,-3.8385689421391054,3.308955525303532,0,8.479830207932707,-3.698918285742186,3.5339236671780254,0,8.51938877344326,-3.8680210369098504,3.210103722740588,0,8.370179509889494,-3.8761784303592015,3.427244940697925,0,8.450070430161778,-3.610479576441724,3.3296926938994362,0,8.445320918513065,-3.645642969495686,3.2799756826074424,0,8.518737002730196,-3.7391651975190072,3.084078752992371,0,8.308265763916621,-3.7808797650401926,3.30708371970508,0,8.361282440408369,-3.644834644329254,3.468061517057234,0,8.522964828658047,-3.735129548372773,3.2319053802094837,0,8.576938911104007,-3.8188763376066515,3.25663477371113,0,8.59039752422171,-3.753202188000613,3.2937119887929347,0,8.462373594964761,-3.621378188015355,3.1978468653427443,0,8.447153787031755,-3.6632342243319616,3.3364375720871147,0,8.331966209706389,-3.9814018190031253,3.4362147609612825,0,8.662268676371726,-3.719765095689642,3.3002112011354288,0,8.599212378093394,-3.844038512841498,3.0967223197451523,0,8.445174757922933,-3.7406028038467296,3.291595528035374,0,8.40000558400555,-4.029935794133122,3.2190975980881467,0,8.358009409155594,-3.522965621269587,3.3518590729728146,0,8.53566070379489,-3.7608428779935825,3.3223153833124046,0
9,8.734969193132397,-3.508439225284118,3.9787036315616424,0,8.725545316348883,-3.344798318754937,3.7576888860011914,0,8.778977413509098,-3.5509481901930298,3.860089787855124,0,8.608282060682589,-3.4848946434339902,3.8893915560354406,0,8.792052744426995,-3.1727954328638774,3.688220407705894,0,8.604023677865936,-3.392155571316781,3.794588874377401,0,8.731250152752022,-3.4744488725833054,3.8582696699820267,0,8.550930739648846,-3.470019295225834,3.7815468773901366,0,8.592637006791529,-3.5672386332267374,3.7860524009201812,0,8.573540367746949,-3.6097262907834153,3.822230325679899,0,8.601521879891946,-3.434996965732008,4.018980701654096,0,8.682313143512872,-3.6438356219336145,3.7208361550859883,0,8.488676260934211,-3.499033598127601,3.934211287758945,0,8.82498097009531,-3.41326842981421,3.9282324583847994,0,8.717652885569015,-3.389053718922499,3.6914610094611886,0,8.76148276899968,-3.4411870154747053,3.5899776311861706,0,8.588030783740184,-3.475691747058723,3.8154494763803983,0,8.582988781114299,-3.4674416565505632,3.9912775021973546,0,8.58214187194255,-3.4285029940077263,3.6793244211493916,0,8.768939127417006,-3.6162740378672913,3.7679201713346115,0,8.836847876305264,-3.381208987111337,3.930129861586705,0,8.801605005671414,-3.309426601901512,3.7675892796359576,0,8.662658444454893,-3.4197303305585356,3.791137106950847,0,8.523447155022382,-3.632615738169214,3.9810779341566374,0,8.754731669818856,-3.4790799259031266,3.7721827232771714,0,8.853679083985202,-3.539240634663972,3.6429213289919855,0,8.626618471767296,-3.2956797350536875,3.798506807502623,0,8.526764284617546,-3.539403607605393,3.7050835143482685,0,8.541516101019944,-3.3430774244085875,3.894921624309803,0,8.63949360137339,-3.465978031815627,3.872503629716491,0
10,8.779919405752185,-3.7728389685105834,3.95229001915008,0,8.702967984094945,-3.442631426364068,3.7405328948707237,0,8.686474818367502,-3.6919893966132653,3.7338618341045726,0,8.706338470061416,-3.7056327991978555,3.8491773373325597,0,8.736860344627566,-3.5117813320085642,3.7672011421435054,0,8.555873116069515,-3.6803596870622255,3.9895099603204702,0,8.848570159275118,-3.711418314926061,3.9733428466667755,0,8.669759271856861,-3.742724347957363,3.743066113772528,0,8.515132761653028,-3.7626037443134743,3.873710200979468,0,8.468481966619564,-3.826045628512707,3.8654120869240742,0,8.682272341414102,-3.5603998447267267,3.978106005241256,0,8.826729858105498,-3.7612166581088182,3.7278688217063167,0,8.519278821914376,-3.719807448629503,3.868398177374691,0,8.775525527493931,-3.3767937437829616,3.818122953044966,0,8.677712724154173,-3.504437207288043,3.767623115216514,0,8.76667238684003,-3.627740849183541,3.632912651854552,0,8.590167713100964,-3.6929707890884025,3.941398369025889,0,8.535997473409468,-3.6218533639842625,4.012889089222072,0,8.671646283883753,-3.4603592292531533,3.7674855098940347,0,8.704207692806383,-3.7923895959506884,3.782134461309133,0,8.831400440219356,-3.634073192933891,3.83078303710571,0,8.840039047224808,-3.5264121275169646,3.7317085499440306,0,8.607101979535626,-3.4740445742710593,3.824507641768895,0,8.442946876663386,-3.772151355950125,3.887087687542678,0,8.724847104596329,-3.579801510180719,3.7552782137838956,0,8.64352041776166,-3.629223119395559,3.8182075038708416,0,8.592611065723288,-3.639550757340368,4.051556980126198,0,8.688992461569525,-3.7541373787209373,3.592802666489513,0,8.518285691739077,-3.5198929232355547,3.934219014854339,0,8.676934581208899,-3.659424734629793,3.9469883914331647,0
11,9.513568409074296,-3.4554729011464547,4.212227953091206,0,9.577489951342423,-3.194338609455759,3.92985590976138,0,9.463869613141826,-3.4094561977507873,4.034083494945728,0,9.378005995871096,-3.4571009426773007,4.180949319313772,0,9.534177481214428,-3.294727281959934,3.8308470459628325,0,9.370755811321276,-3.3510183148884085,4.181929822401362,0,9.423787677515575,-3.319917539333279,4.130048345245408,0,9.392115931612084,-3.416633125331256,4.016352743343566,0,9.46397779522555,-3.550091591380373,3.9318717295447696,0,9.373198064615725,-3.558874353309314,4.022976982951274,0,9.419582822368145,-3.2751983393780497,4.1394261398679495,0,9.39603999885003,-3.5717093358150964,4.024439003384341,0,9.35836752697824,-3.5345474036633346,4.032259075859758,0,9.556652168660548,-3.303983183055351,3.9953899154491834,0,9.410970397221446,-3.3008701913683467,3.9802033070577205,0,9.458718600656534,-3.339775488562219,3.8427702857636667,0,9.371420264510695,-3.391225471563789,4.042633077153704,0,9.440291662496591,-3.4409781623961613,4.2489496375314895,0,9.467284721258224,-3.31106567421138,3.860057868865183,0,9.524117501992556,-3.452732480590972,3.8740131734911074,0,9.56677310155036,-3.37709379241054,4.030088205112328,0,9.405399854429144,-3.191819722013186,3.898069714961615,0,9.264352794752142,-3.2857927027492235,4.000770661537745,0,9.141180152449586,-3.4929367271038263,4.0094165029351485,0,9.598037545570783,-3.2871337575860666,3.9739068511606526,0,9.485203889553908,-3.3714946180017678,3.86873555914253,0,9.360161105003035,-3.2743660536742105,4.08916580924052,0,9.463921408618988,-3.455746852888148,3.902426588573522,0,9.259983028187133,-3.248017241009678,4.091140900116536,0,9.476395317957506,-3.36940495626436,4.120074687776294,0
12,8.724546559263928,-3.8783786416531063,3.793902716664689,0,8.827363213055973,-3.695996078279381,3.5565780454100286,0,8.657720679293346,-3.7683594818383876,3.523744880709552,0,8.711330058256348,-3.7737796342448156,3.7843450981465585,0,8.752119575818512,-3.707855792674489,3.687599391618729,0,8.697125291753045,-3.9043204324116276,3.854352898206194,0,8.733814994412933,-3.792166256916343,3.6376120854481333,0,8.619391332368071,-3.7741927297377007,3.5699749236197382,0,8.683680399702727,-3.9521304054654194,3.7068377854653365,0,8.611615378999291,-3.9879673155328796,3.656105091681357,0,8.733200171397161,-3.7787025112573693,3.8485018421581128,0,8.780571272591166,-3.912791481449792,3.6737777073698203,0,8.528465025452027,-3.884222252044203,3.781741104506748,0,8.90248800621783,-3.8225162908326764,3.716598917717712,0,8.692928083939881,-3.684497517450749,3.5571625123481097,0,8.876708587090926,-3.714496134316576,3.578703496721849,0,8.575166387445277,-3.7944273703792883,3.6987649652951817,0,8.521094866276263,-3.8443394993101547,3.826536846796742,0,8.698790580815384,-3.7012870092513874,3.6245336651539795,0,8.81872581624276,-3.880737242673667,3.664932445776622,0,8.81828338606853,-3.7351750358415963,3.669086130640518,0,8.721445721991106,-3.775425581804661,3.5231852636021435,0,8.646034219105607,-3.740671052115099,3.642331811472927,0,8.560712937203885,-3.901589280252655,3.8553444548679296,0,8.830550417203467,-3.901298644369886,3.616468446400329,0,8.711602374030546,-3.8953812819580014,3.6099452902027123,0,8.687025930910561,-3.667705731066931,3.7272987164710654,0,8.667439208060772,-3.8890144937276094,3.4959703729532356,0,8.612030418357211,-3.716220577886594,3.8305236494957593,0,8.849983182151202,-3.74499826788859,3.6831348457985724,0
13,8.567883544512581,-3.432014493333442,3.4012214094728073,0,8.451615548276111,-3.2944550613773034,3.299578660366401,0,8.52105733424114,-3.4952946764837223,3.275002784497119,0,8.34763860519804,-3.499077990427996,3.3241285649898225,0,8.71218155948068,-3.1979694192602515,3.203180951642804,0,8.336941874946378,-3.4258033202904334,3.442029588055448,0,8.614230671317403,-3.3889592532265653,3.313079189524278,0,8.438162016358678,-3.3605758701272146,3.1537192887817023,0,8.497225371732112,-3.470076298521868,3.3524467534626248,0,8.390716803479885,-3.5618092691051007,3.284128077630284,0,8.323213698548175,-3.429014184027829,3.3424471889264002,0,8.500667615512278,-3.5751492087654606,3.202840912300208,0,8.28954344639018,-3.5773378769939383,3.2773464247784045,0,8.494188995427322,-3.2143526847085897,3.448532250608736,0,8.506431009141291,-3.4451308021217653,3.1698593568778133,0,8.666634283406461,-3.4208666213145995,3.1132383550131038,0,8.360475986191796,-3.45653957993236,3.3691023341996265,0,8.396504127842343,-3.3999617996189078,3.48207784922795,0,8.47372112606231,-3.3585370935042,3.2412422568751325,0,8.531772482693382,-3.4654019944762706,3.335192849794422,0,8.600892623971355,-3.5057286813754875,3.3371525085783316,0,8.462358410150864,-3.346524622722487,3.2031606943463227,0,8.449285607914751,-3.367291596167999,3.2158754557533262,0,8.289631914997361,-3.471102885018262,3.297075261834793,0,8.448480764267511,-3.3787557441343243,3.288127714423894,0,8.540967762124419,-3.4978479437692664,3.0565217575728245,0,8.424242457383805,-3.34833598735432,3.4463035149942054,0,8.460422196311589,-3.549470569773143,3.157364102208488,0,8.435038517106852,-3.387066950252023,3.4317745975440475,0,8.568204503897958,-3.399201486737804,3.35256315858571,0
14,8.366746192587868,-3.197900901554031,3.6846394136642395,0,8.37929638725823,-3.0293683721088795,3.5213198873510962,0,8.445196114179515,-3.1595563876538697,3.5219875281949364,0,8.32194580437322,-3.230573302080397,3.7583082613365404,0,8.348186020184935,-3.03769832489362,3.4110986312898874,0,8.28622144972881,-3.234786743290895,3.7136107749317127,0,8.42652799164475,-3.2308707187659635,3.7716722001725382,0,8.166062890944717,-3.229925704920851,3.5982629850045655,0,8.345272546635718,-3.171888672781046,3.5595403639677228,0,8.229516589987595,-3.1893283062615456,3.5151799197284,0,8.333728890875749,-3.089909812262897,3.627644972895385,0,8.369613213514006,-3.2187336880591038,3.6268639520484443,0,8.184612526940818,-3.4356281601071266,3.6698777823153628,0,8.404557881614323,-3.069318478918383,3.5903733203863224,0,8.39450589903286,-3.208474788084732,3.528247928817246,0,8.486403193997191,-3.208901049280095,3.431481082817342,0,8.298153325317424,-3.2254750208220027,3.7202428228407256,0,8.259585335887406,-3.31510193189856,3.7191144178125644,0,8.446182133953158,-3.096588280518296,3.42135064575268,0,8.424973888665056,-3.1057444221604094,3.5922966012818054,0,8.445671909242325,-3.1590363812498254,3.5961085083363504,0,8.459217508693218,-3.1013225612663136,3.603176008105852,0,8.321046013540938,-3.161853550540462,3.7075413855637946,0,8.236683354187754,-3.384501773784725,3.7306773250070355,0,8.310978891896825,-3.0696206060397175,3.5663151578545116,0,8.39783047387805,-3.3350611516566286,3.554746454738434,0,8.378700978076427,-3.212659902796274,3.5580105940087066,0,8.293746170832172,-3.307938197709225,3.410318571078405,0,8.241188245079162,-3.0865456525753054,3.7080183784695424,0,8.446603557011128,-3.119142984414115,3.7155293157855405,0
15,8.87294682663022,-3.3194091261478933,3.6563796157778716,0,8.938854706970185,-3.1371117872571093,3.5307482006543394,0,8.724157037861888,-3.3208147778383563,3.3929809513064635,0,8.643018146089515,-3.426266715322488,3.537953764398218,0,8.785610479214244,-3.2127043912485114,3.387072684130161,0,8.609185171599423,-3.332155204490095,3.5862093075046304,0,8.861410582940499,-3.228774292524154,3.5495688955469245,0,8.650496776981615,-3.3593561976090793,3.538682556997383,0,8.765536888844832,-3.3435098702744415,3.5415839184017024,0,8.694179686556174,-3.4355746762249053,3.573331149220094,0,8.815563424896023,-3.167474376104321,3.6847404211505292,0,8.72277284164069,-3.421299173506972,3.489329745696808,0,8.60236844690891,-3.2930216409597675,3.5294002340661614,0,8.871633663055002,-3.1683125658085705,3.527244486333327,0,8.770675331844478,-3.205814458926765,3.473844378805059,0,8.88249127532084,-3.2091723456498515,3.404377524501547,0,8.754299286597611,-3.265232696455085,3.621806602022507,0,8.626946948973902,-3.244655734633582,3.7469575175381116,0,8.706017469978326,-3.235898788183984,3.417561903686442,0,8.815279995166652,-3.4651768696730136,3.4728627347814083,0,8.880648192335538,-3.171384085281242,3.5065614690449394,0,8.740831995335903,-3.2144220973886237,3.488271025508245,0,8.667235441176693,-3.164117167316582,3.415189963114327,0,8.572249265176538,-3.5354474293186406,3.654799818263503,0,8.962073703201034,-3.2494504293435797,3.4714260554284757,0,8.841397827555218,-3.303322635359984,3.4276995595110162,0,8.800180399848367,-3.2054623860401845,3.541398812857366,0,8.733929475058961,-3.3234575397497963,3.4542928286152526,0,8.609518826739366,-3.2485964001927283,3.5630103395321013,0,8.80246314118476,-3.248912964172924,3.5618151017685835,0
16,9.031666669089404,-3.460415542686068,3.2690532281055233,0,9.087318667322078,-3.438615007515314,3.0600868508218007,0,9.048682210364914,-3.432230507923938,3.104655612549727,0,8.92454663788017,-3.571992862303623,3.273720964151721,0,9.085779756050414,-3.278054250476606,3.0413083960025418,0,8.906384618244001,-3.4312641694793946,3.189532528100431,0,9.050654948359048,-3.345572018276758,3.1895933751082017,0,8.922873281587794,-3.374849124020112,3.0602565122681953,0,8.931604289182374,-3.4926395747474395,3.079884600744529,0,8.94145310602298,-3.7279240282837933,3.160365259106412,0,8.9551584770928,-3.35085067625865,3.2634463567752463,0,9.028601558290125,-3.5840343969580406,3.070331821435681,0,8.851300923103413,-3.6174729424129715,3.174433169480527,0,8.950987875615782,-3.3591578389777945,3.238118669420815,0,8.979801419265419,-3.3647218960153786,3.134395517692922,0,8.927422310013897,-3.3968560607915603,3.0168303255952473,0,8.899216612593802,-3.4965942781027324,3.1965905759209567,0,9.011273891093898,-3.523286140936913,3.302863085678041,0,8.935377991494295,-3.3234635522072127,2.9542697784432046,0,8.966636301282685,-3.483831663803525,3.1267984846096577,0,9.152318811562761,-3.366926440839364,3.228260633957876,0,9.058066821971138,-3.3888301932791025,2.9883440563275383,0,8.885534674098404,-3.452380112533929,3.118459447354033,0,8.70591638591058,-3.637608965073929,3.174438023509298,0,9.085863794471333,-3.4790452105565532,3.1861833009819036,0,8.912041865940395,-3.5427280596579127,3.0534542231103905,0,9.009520681669498,-3.440161156694129,3.138113890626979,0,8.924442008941911,-3.546912854846675,2.9412111102232594,0,8.98886411063367,-3.480827302003975,3.2800550720099686,0,8.910048093227456,-3.488163974796061,3.1675740876480676,0
17,9.138141384965136,-3.836852145757786,3.7799902795251468,0,9.132042117504385,-3.8094150997413925,3.5601759960566417,0,9.138675696579817,-3.803918018566831,3.6631369330872925,0,9.056701220998539,-3.857857751926858,3.81642825638915,0,9.19143242240653,-3.7138584553852887,3.5126376596551103,0,9.129818896569189,-3.9288804285250825,3.7679013459816444,0,9.163409686692544,-3.9113347507496306,3.7788563603005296,0,9.023307040260292,-3.8521413040422074,3.6474851046955923,0,9.054208968467723,-4.006918797107453,3.77379523004741,0,8.954139249352638,-3.933092786960723,3.542763420789819,0,9.09497715819145,-3.6986036926819117,3.719051034324758,0,9.087163389514744,-3.9435538519597966,3.5548620213546864,0,8.927320283279393,-3.8922563769625946,3.771933394289907,0,9.192142280934926,-3.8233496090277437,3.818224756649596,0,9.050736452482749,-3.6927245989917568,3.6247432584796164,0,9.066459926798045,-3.7864206688334683,3.6404065683428386,0,8.974777207490071,-3.8455732322731477,3.5942973917276113,0,8.932362047784368,-3.913731167577715,3.7938232210706677,0,9.120442743311285,-3.765806742669409,3.6083171588184633,0,9.125680048456754,-3.8722941101543302,3.5023986145766415,0,9.361576618240994,-3.7333081160960973,3.7372677045099376,0,9.156406772815362,-3.6414249757505956,3.539060191442208,0,8.989603053474204,-3.7736757588570717,3.585331570665052,0,8.927167887098287,-3.8929974112676997,3.7126859508097834,0,9.185028087771016,-3.9157141679731713,3.7514364278290357,0,9.125952156973208,-3.876011457181266,3.442740348240356,0,9.13864700449278,-3.7173850583036985,3.6841615389375333,0,9.044192054128517,-3.952778016119265,3.489376677387422,0,8.963048560791808,-3.623956467448135,3.838731447155024,0,9.08485135752654,-3.9083863096506097,3.787975702241295,0
18,8.827520399059555,-3.5896143663988913,3.690498586212215,0,8.886692338878463,-3.521441995801646,3.5559872081053596,0,8.813852669475079,-3.6208853186578396,3.6201442410884392,0,8.737525520697677,-3.6209187703341095,3.6312305110377245,0,8.894655530209354,-3.4010514226596427,3.402679459444198,0,8.705956074554166,-3.662338983063708,3.6778255580102766,0,8.872853141792522,-3.565644769811391,3.596099039235527,0,8.700166138068289,-3.5973996623413886,3.557061911009752,0,8.780060803653544,-3.8115764968231702,3.66245673977123,0,8.743395319100536,-3.7732087279160016,3.6875421421893413,0,8.75940789387035,-3.499852207242474,3.630873463452328,0,8.894223168847256,-3.7134364813285696,3.6076869831919525,0,8.77287936281132,-3.7456373183757328,3.6420201278957607,0,8.974748293885868,-3.6230446295993226,3.707701933766322,0,8.77347488650392,-3.5117085216128063,3.717347272313924,0,8.859791739148221,-3.62755792488566,3.553144883263789,0,8.785620114631428,-3.5890156135696714,3.7479854956656182,0,8.673818858682138,-3.5771007747383154,3.7691271166632134,0,8.826485587300526,-3.60425251187267,3.4497388462751783,0,8.91960910724037,-3.690605529806911,3.5578636753585835,0,8.862773607587158,-3.6368372187369724,3.585906773890238,0,8.840681770522076,-3.4369914474520717,3.602253674944348,0,8.648450790520974,-3.3644309977374447,3.5976893029630106,0,8.716595239353778,-3.6462936611264203,3.7874365875871963,0,8.781491723928573,-3.6061564832597908,3.5642227799308936,0,8.871547910235131,-3.612696975841715,3.4993460055369647,0,8.696463172103979,-3.576219697809164,3.6743905143044797,0,8.692827965999747,-3.756391667574326,3.560837517978106,0,8.749456432632856,-3.4517419178216784,3.6043050616771337,0,8.749561218018396,-3.4806309853820823,3.72511468322133,0
19,8.845514366585082,-3.733166570948017,3.4075769011194366,0,8.80149683322151,-3.6752619408123697,3.085998639161304,0,8.807544106035344,-3.79762007394455,3.2400030736485355,0,8.782758647886926,-3.753362908061646,3.3833083179450467,0,8.809717023081248,-3.5333016715376266,3.0919276082280676,0,8.723098356750425,-3.866866169124968,3.5037357195697796,0,8.805662622081758,-3.783194919641954,3.2815302341928696,0,8.634014733435494,-3.7964303015169962,3.287205283060364,0,8.713688362618582,-3.8691077830941674,3.2735374749107975,0,8.647840774857372,-3.8066439203785745,3.2986541999770957,0,8.66737574111847,-3.6871074578296366,3.472081664557692,0,8.759705794680292,-3.851747618974914,3.361006332565841,0,8.577203228001434,-3.9035766809372703,3.402507440299149,0,8.851568419051755,-3.5249963521475096,3.3838931836448225,0,8.699753232832983,-3.635457824716969,3.1908848081760626,0,8.729178917207092,-3.7162988241223394,3.097393076942293,0,8.638937843613629,-3.764236411216264,3.304238968099411,0,8.74499337049213,-3.6630239555459063,3.4221121803590835,0,8.690362525130466,-3.6453143442253593,3.19867162088564,0,8.82852708678163,-3.828716227440551,3.245746859457922,0,8.914819732767135,-3.7864657873277956,3.2493566757658567,0,8.835253510460467,-3.5665037150693744,3.217904536536186,0,8.650690740632136,-3.774677205346651,3.2773680848121973,0,8.576058648478789,-3.870073895223207,3.3249626098568155,0,8.809613699749605,-3.767276306576377,3.251202454590226,0,8.781104646958225,-3.706419646434232,3.110208298664562,0,8.74112807824571,-3.704780543589334,3.308147464002135,0,8.76266211657854,-3.839993248355954,3.1708040407373894,0,8.609651006932602,-3.643704303141639,3.353671276183158,0,8.784959881911954,-3.6752168548378883,3.346001298504585,0
20,8.976363807235115,-2.9690983057100278,3.719132532984165,0,9.058320324364821,-2.9043171824724627,3.559741881471369,0,8.837602004601754,-2.999796869505242,3.558568268655023,0,8.937471580639547,-3.0045850977112747,3.7188736122618895,0,8.8576581642199,-2.8212779281509053,3.510336371645155,0,9.065311969532086,-3.0076752840824295,3.6437755327457495,0,9.046865007603571,-2.8230100817475288,3.6420294893060556,0,8.870073421540678,-2.9874637319008976,3.6331268135843686,0,8.928751258490632,-3.0659690818218728,3.5611921840912415,0,8.840065053872781,-3.1291070880444813,3.5691658917692224,0,8.958636576217911,-2.9197540739303594,3.71069569719563,0,8.95724237823871,-3.088150837355886,3.5734971424101745,0,8.812275410366249,-3.136241454341799,3.7995731231076424,0,9.045983424553672,-2.9843328741464097,3.613065098096546,0,8.8658703421515,-2.8513876195170886,3.5994508807950902,0,9.019670478314826,-2.939616841386044,3.442252376022474,0,8.855390156434485,-3.0421113530578414,3.6946456728884693,0,8.85675969933181,-3.0166612214799127,3.759053362293527,0,8.845504413042944,-2.924157116009374,3.547180158925743,0,9.011543686283048,-2.9838034613755298,3.4713111475236254,0,9.075256033761669,-2.9900733291389967,3.5770717981012474,0,8.946145944811757,-2.8928769628990216,3.5402355872991635,0,8.91265798826786,-2.920727449767339,3.564214217914043,0,8.685527118118385,-3.1474106419550165,3.6334856072580615,0,8.96858238643267,-2.9321738373295285,3.5824976234025927,0,9.00198614129255,-3.071478928063251,3.4125964048365645,0,8.887833980239781,-2.960759665549407,3.5511488722591387,0,8.80265186423728,-3.082256586032188,3.5855089310206845,0,8.887396134026412,-2.8940418067098608,3.670990446704466,0,8.970702087993885,-2.8834007364159073,3.616498185614372,0
21,9.346728446243931,-7.099689105131126,-0.8978153731957478,2,9.319473058470958,-6.79475062194303,-0.9843465295975883,2,9.377330795079564,-7.008165744547957,-0.9588645484843258,2,9.30922005387726,-6.879526711524623,-0.7122906522021989,2,9.464822054583008,-6.661136815572616,-1.1685935675712684,2,9.368387289183262,-7.06176653016843,-0.8310327448852566,2,9.492024578824719,-6.87715401546868,-0.8073985227112193,2,9.23601805106232,-6.864616723855227,-0.9894742546708739,2,9.458302905672465,-7.192691125189546,-0.8822977256805333,2,9.302408608343155,-7.087428482404812,-0.9772776662126015,2,9.221090162179541,-6.961360929776401,-0.775122726183395,2,9.310679768708557,-7.127306812253259,-0.9085853455737518,2,9.150006861305002,-7.055432441746008,-0.837288916166928,2,9.414072889146642,-6.759394904541255,-0.9536221761637815,2,9.245646024753333,-6.873373075737842,-1.052643422502112,2,9.198070979419555,-6.987965679696254,-1.0138521547279051,2,9.279321474738113,-7.025615353543596,-0.8723139472527892,2,9.238997045546464,-6.9474974705383765,-0.7697865050787406,2,9.363616164688182,-6.861549649268266,-1.03423539968447,2,9.31722915766172,-7.021890598256371,-0.9577806876881002,2,9.34300607671723,-6.92684362591502,-0.9957239894097438,2,9.354064834246012,-6.862738961287686,-1.1438781142150023,2,9.224157227282817,-6.964020236405075,-1.0375998746495743,2,9.120029806424968,-7.081751170777447,-1.0361155456240427,2,9.399720424301387,-6.89238675829408,-0.9260101074366471,2,9.378580549917192,-7.012001266226555,-1.1711039413108408,2,9.275438768181253,-6.9062594600024765,-0.9440658955356389,2,9.306467278001074,-7.098617612551948,-1.009994558674425,2,9.206537596734798,-6.828657878989002,-0.91658617824687,2,9.364090552848534,-6.9575828546214264,-0.9642253912068257,2
22,10.203000215291205,-6.391317181597292,1.6679982360114276,2,10.20221202658904,-6.239207991684859,1.6494590778256737,2,10.305396172386121,-6.292759298398571,1.6018631920672861,2,10.136142618196496,-6.445900065186091,1.6603906199271645,2,10.208930788125523,-6.304614790726673,1.423836637634647,2,10.140885916878075,-6.363005273159043,1.6387312380848187,2,10.234708610392584,-6.33084450541284,1.755623872155178,2,10.13993980083462,-6.348499530153166,1.53875535989727,2,10.242212933021582,-6.5332325116190635,1.7499433139963712,2,10.009896089081506,-6.395388331954804,1.6170684055870321,2,10.06691922874115,-6.323968032139849,1.7591499223923186,2,10.300334908607207,-6.445585791971537,1.5929062954113142,2,10.064628472930753,-6.456261589013444,1.6955392613551044,2,10.254064206557773,-6.2223261727024415,1.6311175208310587,2,10.156645074076927,-6.226710987591783,1.6846749121280296,2,10.257774882567492,-6.365971304840205,1.4622798645670612,2,10.077380564755298,-6.390150962410359,1.8437728300217544,2,10.063707043231165,-6.334043883491761,1.779935265166368,2,10.082606529857205,-6.30055165649165,1.5875407217554085,2,10.288448075757753,-6.433709601998375,1.49565861610046,2,10.284918679479258,-6.367817656614893,1.612681660696357,2,10.13262202768112,-6.216883525990549,1.5936195449288593,2,10.029883901596104,-6.310386706007387,1.5884821175878483,2,9.979453188579761,-6.426462213457392,1.7672195543557219,2,10.226652706628917,-6.358370146405201,1.649921062385544,2,10.296206399153249,-6.317499869240617,1.451223805724338,2,10.07791483461078,-6.278636902003649,1.635721718346266,2,10.05977161806336,-6.442847923665804,1.5768218742962947,2,10.058420464477592,-6.269134947833501,1.6854470792443081,2,10.23331853221485,-6.303544615194851,1.716114890323314,2
23,10.889598193044751,-6.872888469966393,-0.3423818193119313,2,10.902577733792121,-6.589913545640363,-0.6458017817776034,2,10.928158064838813,-6.76149449970225,-0.5164793012199829,2,10.82961850930915,-6.870818939780964,-0.3417167155265708,2,10.929449310184822,-6.622832225302589,-0.5895906023699524,2,10.817912594993443,-6.8959876722484665,-0.35990036456284114,2,10.85677247836605,-6.794067974182404,-0.39497406584013023,2,10.74093310360352,-6.672488630971822,-0.6196082859274666,2,10.668122691816478,-6.899193785875848,-0.5104210498132815,2,10.66172398413238,-6.802788192175616,-0.5301277834581973,2,10.717816147941505,-6.658829022900493,-0.35967681354910147,2,10.892164788710089,-6.790555282275948,-0.4716785360795637,2,10.62513363596526,-6.80959356097035,-0.3625854650707595,2,10.88413903503378,-6.616026085012486,-0.4851325574980141,2,10.854927213658302,-6.702300071347093,-0.4630170208270473,2,10.843597410387433,-6.701523513786948,-0.6365855128853145,2,10.660684615344906,-6.7285638549808775,-0.2999947834747795,2,10.734628191167415,-6.719489556593631,-0.43613855845522737,2,10.927122423564171,-6.685744803255593,-0.5791623131854526,2,10.974374894999409,-6.849936321604674,-0.484426876315273,2,10.913392396838775,-6.797296321412482,-0.4940667384803504,2,10.692677789761754,-6.598287720604708,-0.6106956570304535,2,10.797595022088746,-6.6593181586086745,-0.45582821799915707,2,10.631751990680355,-6.913064182165971,-0.45507945884397916,2,10.886513129045653,-6.777994474847103,-0.5337775288232265,2,10.934112764539561,-6.794524145002272,-0.6857622766592566,2,10.731998116581376,-6.622074209468457,-0.46831078099041745,2,10.623197005899476,-6.7951560384300835,-0.6843541710347462,2,10.691407168188348,-6.671371646070604,-0.4399759297277411,2,10.808717906050052,-6.733057194498819,-0.39104227690888693,2
24,8.442804468766392,-4.560535488971519,0.960118678129124,2,8.44342849666359,-4.495778645025872,1.0296114946259551,2,8.428368062718084,-4.6111644808260035,0.9558023151442439,2,8.200816885390191,-4.65730991342153,1.0658944480085557,2,8.29590224750349,-4.40973543954488,0.857369358875945,2,8.247443742492443,-4.584697811916122,1.11468632024659,2,8.412261265709652,-4.600182508599177,1.0460133542811407,2,8.315703588229042,-4.555270613010365,1.0158778552495833,2,8.329480073287218,-4.649499485034217,1.0020135038472582,2,8.203617503445845,-4.735257804324461,0.9704554556270015,2,8.311133956568963,-4.49225583806749,1.0993654804831223,2,8.370361594250655,-4.639169467941031,0.9565216718441623,2,8.162014773819315,-4.689860716757323,0.9939787011596293,2,8.490209430998304,-4.475250379030867,1.073328085645921,2,8.234403997855532,-4.554580547017796,0.9906317685697452,2,8.384852214122782,-4.4423756220241994,0.7727708599276918,2,8.270633233209928,-4.5463875352652,1.0414861023004423,2,8.272227659925749,-4.614314681724007,1.2581313300424164,2,8.281916127877162,-4.420255521044202,0.98976534258752,2,8.462075774624534,-4.657805122152466,0.980180045956205,2,8.487432882247624,-4.461412891396997,0.9593406818085358,2,8.465980887937054,-4.418947243209494,0.9126645257043363,2,8.382916495792895,-4.549621040646496,0.8791219735616794,2,8.170784499843847,-4.721189779522532,1.106821569489621,2,8.478719198738133,-4.669327423950968,1.019789067083581,2,8.404988833653356,-4.610149794891221,0.9229007926117326,2,8.18552898211061,-4.4473852832767315,0.9936585259298889,2,8.361286588366315,-4.624320613492658,0.8916737834013748,2,8.242780371576181,-4.373414326457967,1.1392606963287104,2,8.321754224519848,-4.4774096451551575,1.001654880956795,2
25,9.680437727125378,-8.295508899406148,-0.599795073982578,2,9.71852606797659,-8.182550809091893,-0.7192162119584774,2,9.621674758442992,-8.34693466453297,-0.7342223056844961,2,9.60404797584285,-8.369027680300436,-0.7379798467207709,2,9.668103897975511,-7.991239864045455,-0.899376194122012,2,9.47001577695909,-8.388769531083222,-0.6349297610188335,2,9.766591935924222,-8.228774510264993,-0.6062145471703105,2,9.622638392822136,-8.351089672333282,-0.8362091228329801,2,9.548508597071995,-8.389767961445761,-0.7450879408633976,2,9.528532310237129,-8.458962533104748,-0.6080268939978538,2,9.447917783265773,-8.203268782121777,-0.5980417601846403,2,9.564485790303362,-8.41679259170464,-0.9071369868642352,2,9.489784830509771,-8.39018479332253,-0.5765778771591172,2,9.618228417473059,-8.041156846497463,-0.7417380302747746,2,9.57008828071236,-8.219758362348779,-0.8845903907897799,2,9.766551696036188,-8.232374357806716,-0.9313511594744472,2,9.581432523283246,-8.301989858254375,-0.7399754725401083,2,9.48869633322711,-8.273633588318358,-0.5607073946522848,2,9.522129813748903,-8.094887941383336,-0.8986828417636255,2,9.661102286429186,-8.413151152634965,-0.7731743543805355,2,9.785192718160877,-8.203944558303,-0.6919189430153319,2,9.600074120588866,-8.038261724739263,-0.8720226360684734,2,9.509518733550989,-8.179384074129064,-0.6612482773305597,2,9.335428793301935,-8.41372916644445,-0.6773298887997333,2,9.72426832546058,-8.238856056634063,-0.7668589599380045,2,9.62110169792615,-8.178891944553008,-0.8890059791042596,2,9.586016566889544,-8.286246034434406,-0.6881455847287888,2,9.549523662007834,-8.325610079651495,-0.7479166509574214,2,9.49660010574089,-8.24273737138765,-0.7365855425985232,2,9.60860321450478,-8.1551208602496,-0.6042252528829063,2
26,9.10284757620935,-5.494328449927469,1.4500203539604521,2,9.031768618776068,-5.381446282554109,1.3974954871895182,2,9.022951997217243,-5.653969359822619,1.2084032394780317,2,8.883680875642701,-5.647097651689716,1.4201278171299414,2,9.040224196617205,-5.280859592897973,1.203511743440859,2,8.987467088307742,-5.568146339701788,1.4213357072636708,2,9.141148944048359,-5.617129977811114,1.4076775977445444,2,8.990800031105492,-5.592365146395587,1.3451313641675666,2,9.070994721935781,-5.7117642470231615,1.4841950984681578,2,8.89000638126695,-5.761848279555483,1.4030276557096555,2,9.009711199367894,-5.553109039566873,1.531998278487088,2,8.95408328747933,-5.646907552552961,1.2847036155595437,2,8.853351374078558,-5.7050301523964215,1.37779878201307,2,9.220393446226941,-5.483082592512696,1.4372893818024781,2,9.031250245394734,-5.403070948056134,1.3525491380625976,2,9.054996543977724,-5.542065433407152,1.3134341259807443,2,9.049589241168356,-5.551322000815481,1.3555425264271423,2,8.870012750965758,-5.5378244283928675,1.5304136636423096,2,9.030273352985908,-5.579798977043442,1.2352038718708123,2,9.030757600857502,-5.548931662689922,1.374788257666663,2,9.262142985103251,-5.546888476364541,1.2678053849837025,2,9.127884630209794,-5.404043983259419,1.3601047083861324,2,8.9009993555375,-5.3776558900501215,1.337415186388675,2,8.853874338111073,-5.614129679764055,1.5024515386396184,2,9.119306357026852,-5.505785780130919,1.3292723920502287,2,9.085698924410748,-5.601796748093808,1.2289161834221296,2,8.96171296789801,-5.523317439029123,1.4045325739748649,2,8.879150109232752,-5.593581612513852,1.1679450183472686,2,8.867993267088597,-5.378543383859712,1.4523969850665894,2,9.083391720357325,-5.420052976045301,1.4070289572561923,2
27,10.271636738585729,-4.62180519531239,0.34706310180515915,2,10.19310634969855,-4.516987467229,0.10907255877403316,2,10.109064169480387,-4.683796549485905,0.0880222673325571,2,9.975434753723295,-4.719021257094818,0.2173379009526639,2,10.1745011089654,-4.447421161521278,-0.06519018852376521,2,10.07580140207571,-4.748793820893662,0.267313381327414,2,10.051927011139865,-4.751250149093396,0.2413773603038704,2,10.111746724415072,-4.754441949217105,0.1593173017686586,2,10.041381581835735,-4.790468801212262,0.06621008403365725,2,9.930750175319737,-4.634646097849069,0.2927836830857853,2,10.022132416885409,-4.675709835631277,0.27069314106348513,2,10.201743408738146,-4.81520019518189,0.1258063418549434,2,9.93764413516355,-4.702284881917271,0.3429313955125707,2,10.154487733610146,-4.617409283805163,0.193217077424206,2,10.14537703763568,-4.628221546789062,0.05112966734007966,2,10.042614320663128,-4.655816391411942,0.037765817519395534,2,9.929044168186973,-4.774734693574298,0.23768475993913657,2,10.022652413814754,-4.848658996931812,0.30112131682641563,2,10.10885551414638,-4.599346201689929,-0.06707476640254897,2,10.147895789200346,-4.785055905919794,0.127786913419195,2,10.287494522871278,-4.604728472950005,0.08728755192450292,2,10.103498098867924,-4.622424813756953,-0.007504706066011051,2,10.014720606876118,-4.58179229919206,0.16447167606742435,2,10.014203994888293,-4.767177025779436,0.2946958696611973,2,10.195761748021553,-4.797302748785047,0.08699168283699321,2,10.188260076066062,-4.630978881999224,0.10016708020258777,2,10.009004588053985,-4.642558225602845,0.07393780907324901,2,10.067015034055254,-4.718731072828134,0.02371112921689762,2,10.0100833526298,-4.584180233509833,0.18107887930791502,2,10.01947725990293,-4.644880251073027,0.11265650149123438,2
28,9.744701634302547,-5.018900979657639,6.667865962291386,2,9.863122299037041,-4.934163268088006,6.601975400828701,2,9.785816804741922,-5.104394993006998,6.4417736356552595,2,9.668927300263121,-4.987485837297212,6.582562353148019,2,9.785146779770775,-4.910394273686792,6.481031595522445,2,9.743497678074682,-5.11810482909163,6.663403767239557,2,9.675230427310494,-5.008857666175923,6.690327367533456,2,9.592923008411125,-5.012310847360738,6.51150051439733,2,9.71413244499073,-5.207950007836633,6.68676985498798,2,9.698232634013342,-5.180606016383732,6.613073130398844,2,9.709157238408517,-4.898090279644917,6.6961731880721524,2,9.814001233963543,-5.138503143946837,6.611733909910227,2,9.607789869973535,-5.207287017587113,6.598724263226527,2,9.85815546991144,-4.875139356369622,6.607282943540168,2,9.814981248704346,-4.884514623582282,6.556400705553949,2,9.792986427902319,-5.021697188283555,6.418899435374362,2,9.726352058803602,-5.074325420054081,6.617911628313398,2,9.610363141256899,-4.97142701306316,6.78739150414597,2,9.643419249582061,-4.974681903592538,6.459214210687192,2,9.744990429774708,-5.147651589331466,6.576394190645465,2,9.848507182990643,-4.928843123838819,6.626535407599381,2,9.74405430740296,-4.955436964043342,6.59704880837965,2,9.666211558848643,-4.889353223444064,6.487252006587393,2,9.515004447946064,-5.273510318383308,6.581365619591866,2,9.708247859620199,-4.978787095648778,6.632571665985697,2,9.76823401681956,-5.106620331280952,6.46128478805118,2,9.746178342131241,-4.966361456238645,6.5677385534125525,2,9.631629835045548,-5.15095688151789,6.446025804762683,2,9.769075129469657,-4.9085654083312225,6.7303483213877024,2,9.760058861388043,-4.940840539047475,6.675446977001561,2
29,10.149052494720783,-5.312017699485965,-2.469789589783696,2,10.237536917882801,-5.131917647503328,-2.7539657487913076,2,10.115454264718736,-5.240233978006733,-2.665426151137141,2,10.119937486729516,-5.221194139541808,-2.5420065156134015,2,10.198785943652046,-5.154326273917633,-2.8032609210853274,2,10.0544082157151,-5.360106623501462,-2.518973350201018,2,10.152714719887845,-5.252311094202751,-2.46941846441901,2,9.948393561193056,-5.202873267046309,-2.675226721379864,2,9.956751937706574,-5.415775737797141,-2.61983032116629,2,10.117714648431768,-5.30958335248321,-2.572547940812768,2,9.941492210389676,-5.245555133904856,-2.4542378222723564,2,10.232945598813224,-5.453568540391567,-2.669266232134629,2,9.967916438901401,-5.428693769444585,-2.5253790839751087,2,10.240217043086892,-5.206820260786278,-2.5126964122637707,2,10.102217669454475,-5.236110156148435,-2.7649281370333543,2,10.199199625880151,-5.257369718572757,-2.7795027584036283,2,10.01680332301584,-5.25713486147594,-2.6232036253970197,2,10.028738978833738,-5.364029365845927,-2.471031342117805,2,10.214103169786988,-5.247914205615485,-2.8010427689856163,2,10.173436901779795,-5.316456494918227,-2.641948967806769,2,10.265873636153898,-5.379173334064166,-2.5057893288277313,2,10.173648668659357,-5.113619439918084,-2.725215228361517,2,10.033091226254994,-5.093242259863438,-2.6652832156588935,2,9.890297836417117,-5.3559678394705905,-2.5935776221630036,2,10.220979229684358,-5.208596935228436,-2.5818545897362832,2,10.11112604953356,-5.351275341476818,-2.7927886034309535,2,10.077355283559875,-5.248269238184475,-2.5617311549138586,2,10.173275556122483,-5.322790940823366,-2.7383680400984316,2,9.9609106150661,-5.195855657653712,-2.544096641137562,2,10.086654176023046,-5.204923643347374,-2.566509143133425,2
30,10.66325739802604,-3.498058492063533,-1.8727370640307102,2,10.748971212695379,-3.254858643451288,-1.9624718437022537,2,10.74163102538516,-3.6288711003522187,-1.9230760525598452,2,10.509026382153793,-3.5284872977833337,-1.8428319683322107,2,10.645583277764045,-3.40856111561396,-2.1265770297769455,2,10.632434376516716,-3.6331084684665473,-1.7328790676415706,2,10.74862362255683,-3.482686333917834,-1.9141707344621908,2,10.567818249376971,-3.511818062110386,-1.944875054436293,2,10.538456290095624,-3.7112497281757713,-1.9410589339690696,2,10.521719428468266,-3.656880729479001,-1.9997097865194933,2,10.652384490826249,-3.481297498750689,-1.7898028927507459,2,10.695230789392621,-3.544675463752143,-1.9978309224390447,2,10.482919207575328,-3.6499531085560664,-1.9982192575917417,2,10.698473600104448,-3.4723015559265478,-1.9629040954454138,2,10.768335988648772,-3.454614596651836,-2.001013971067948,2,10.6981297412442,-3.4344851822752718,-1.9868382979496837,2,10.572341744871173,-3.592568227940464,-1.9275201016495394,2,10.628763119410095,-3.511287411332997,-1.8321439134355428,2,10.664637972635628,-3.5677646936145226,-2.1525976913689755,2,10.795030660164155,-3.6210831701192427,-2.050125780658472,2,10.903473208932636,-3.442944661759593,-1.9442359155638724,2,10.661218054865744,-3.36347612125035,-2.0765404129886758,2,10.498158755843479,-3.399439767957096,-2.0358647128028107,2,10.58268612545139,-3.6522642396272453,-1.8704348681811227,2,10.77072646564936,-3.671232565288078,-1.955147794588364,2,10.766302045922018,-3.6895688592693254,-2.07714824865972,2,10.553615715446883,-3.4864624734713523,-1.920941785033592,2,10.511856223834622,-3.5859374786330576,-2.048695179845082,2,10.568254472068727,-3.488983489320696,-1.8335509352497787,2,10.726544930184923,-3.472788876790785,-1.9091688387849575,2
31,8.625885033873992,-4.017475632797652,6.019375480864297,2,8.611713998954272,-3.8464778061574822,5.809948361871049,2,8.701017734180885,-4.002292925915645,5.811435875183686,2,8.424330794192594,-3.8889018907088047,5.975464340793166,2,8.582544138607366,-3.8644855425298945,5.787848034704889,2,8.507219847646743,-3.990450320885693,6.021478590408475,2,8.609649194358994,-3.9904921519604346,5.928924952567504,2,8.439541821917532,-3.998578043499168,5.808163536684786,2,8.631652436323916,-4.103009058423933,5.904272719451446,2,8.336239025440133,-4.148368004117397,5.904523647329399,2,8.557989312672888,-3.8936568496123742,5.962969725700302,2,8.627651312658484,-3.9699825882678774,5.826616864080463,2,8.33659286108799,-3.939844159582574,5.9440329488892,2,8.722094362719075,-3.873682720014968,6.042252826518475,2,8.554161052240442,-3.8637737524187714,5.823046685960068,2,8.726486028071147,-4.051653615732166,5.732307637490699,2,8.549948949843893,-3.9927170271991916,5.992444533553181,2,8.4356827905981,-3.88654893739654,6.033164800643339,2,8.50682229885082,-3.8753585403492763,5.698760178978896,2,8.647509194416902,-3.9379377595587566,5.9570431355994,2,8.592055770459943,-3.9438369441662537,5.852011697760045,2,8.473507299692994,-3.809211578981116,5.741990465522864,2,8.52683959823675,-4.035832000872121,5.883288240868851,2,8.489308669500097,-4.071840595216373,6.040603413108098,2,8.630396077960626,-4.0252269184252985,5.925296478367633,2,8.609287281758181,-3.991133481050413,5.725058519393157,2,8.48484203929067,-3.822274587373977,5.841728117814184,2,8.435299177779942,-4.024729732751702,5.775210376755979,2,8.427094289168505,-3.9229023878809515,5.9772481321256805,2,8.491340840160584,-3.9139312768079613,6.011548638362185,2
32,9.315907973521515,-4.954687326271397,-0.7806550950780686,2,9.22661931338074,-4.855816339797293,-1.0802818609367308,2,9.228558476431841,-4.909717179970796,-0.9898997946700631,2,9.120178778642137,-5.007563799656634,-0.9087542224017473,2,9.23439563041952,-4.696720845437493,-1.0857726042059952,2,9.149032875357777,-5.072439019797073,-0.7942958886550372,2,9.301787483261535,-4.877715033950146,-0.8090297909968084,2,9.199885820200334,-4.9962927121451965,-1.0353434109655744,2,9.168372876909062,-5.110827336914289,-0.8983290272649952,2,9.189337924102245,-5.051086217344892,-0.9277113385805551,2,9.163331853514602,-4.9240334185266335,-0.8079312705664818,2,9.300165602328175,-5.097150881195823,-0.8819073062676024,2,9.091660857727689,-5.005973382942388,-0.9453694450775263,2,9.368665629292758,-4.797737165436727,-0.8314547337462151,2,9.234924170159236,-4.887144573102105,-1.0398500186171105,2,9.257257808159741,-4.826360280535654,-1.0372973750628374,2,9.082617923035821,-4.966902922058398,-0.876738627174376,2,9.118675098678274,-4.961046869664101,-0.7143520906612474,2,9.204100252556426,-4.894816323873277,-1.0737146456459115,2,9.233188426393838,-4.997079089363573,-0.899724128229661,2,9.389346622323542,-5.059780499072846,-1.0021380553340407,2,9.177388015617447,-4.805485627479601,-1.0738055392412673,2,9.142974426358954,-4.852559616031199,-1.0373595416274217,2,9.008831229035444,-5.091772782190687,-0.8744674851880518,2,9.383548873705845,-4.78425972681076,-0.885384604743258,2,9.350356734474744,-4.953607175787901,-1.170688037487153,2,9.247915111859548,-4.8504135290683745,-0.8419247328109914,2,9.181749897992487,-5.035041807222516,-0.948689165434162,2,9.01745499839653,-4.829424937587199,-0.9631982261647581,2,9.274235592921308,-4.954833985139587,-0.7857501134533317,2
33,9.82086842272005,-7.397878734716118,1.623107740699947,2,9.851926101221723,-7.327094012939443,1.427080188531477,2,9.731143416563569,-7.610308575907029,1.5235806570200958,2,9.682680528231396,-7.586575705331761,1.590574469469321,2,9.854459890018807,-7.30335229582677,1.3630722199558911,2,9.732103663345406,-7.527988643704483,1.6215905629383844,2,9.839909797840999,-7.487075856045564,1.671303212569534,2,9.624053939318644,-7.430030721786211,1.4809021826766207,2,9.684986245829506,-7.5238186267277,1.5192333651623828,2,9.685306343567175,-7.574422861777065,1.5901213890220192,2,9.718355756985655,-7.304225536731102,1.638103861967269,2,9.813881869399015,-7.510187923263671,1.5902048448423625,2,9.586992057254232,-7.60564117502393,1.5086474776789567,2,9.789073717692354,-7.2286605894582765,1.5350149505036486,2,9.701683481690086,-7.379419923291961,1.5181265235054016,2,9.885074962781795,-7.276349155851146,1.4623146207511994,2,9.670271968613463,-7.479272054852691,1.5747402701301172,2,9.805226471545428,-7.511627584812065,1.6984389369279889,2,9.833116270622025,-7.4008325364143035,1.445629715600323,2,9.838571151288502,-7.489684593699403,1.5269803928406798,2,9.825520761040295,-7.350340371118595,1.5178601487309182,2,9.752202230533026,-7.401587388365228,1.4210860736320265,2,9.80090945287367,-7.515888875853164,1.4666471502100495,2,9.627092091425205,-7.551319364490269,1.6073358943685467,2,9.858077626549203,-7.431380514510916,1.568951692810158,2,9.779503585909211,-7.493716036054679,1.432813889054687,2,9.71684898903361,-7.437668586777438,1.6219262438830946,2,9.686430189443245,-7.5155540049263205,1.2640754624393902,2,9.711772298345062,-7.402242992030514,1.57800094821066,2,9.722857863173012,-7.503189779201581,1.6344769733820088,2
34,11.302258400965648,-6.907356182416815,-0.3053060371327896,2,11.456790887344994,-6.72798063104979,-0.5210999259430207,2,11.256084939385639,-6.776920807325765,-0.6618323356633096,2,11.270066931591307,-6.8422768666620115,-0.4167502217159839,2,11.409061626646428,-6.712259146225342,-0.7299753008316001,2,11.21013240515913,-6.908092538522053,-0.413568094983387,2,11.45924405005879,-6.814611299977278,-0.45957082557695134,2,11.212086387054516,-6.942488384648224,-0.4443199982083683,2,11.284428618915058,-6.983655340098957,-0.38943613522808546,2,11.207268373243222,-6.923553517416325,-0.46601358642681256,2,11.29342933505985,-6.862858127901072,-0.34560770476735947,2,11.321543225223847,-6.886729076362164,-0.5563715997729556,2,11.129392131534653,-6.921937932363763,-0.3484907297994865,2,11.403861767866802,-6.633265885552647,-0.349405188692626,2,11.317772628742476,-6.922890290283334,-0.5364679806252587,2,11.368534084424866,-6.814789297133609,-0.5192351449420574,2,11.173131002360815,-6.848555423230901,-0.4336898121002856,2,11.252785554096597,-6.832154857655692,-0.33177233208397505,2,11.381991962561152,-6.712933051882861,-0.5568813593365428,2,11.357971798684638,-6.906362518725308,-0.5056805339072329,2,11.327791472587098,-6.823507833789698,-0.3995908652420167,2,11.332154641350584,-6.66382372613589,-0.5745890887660011,2,11.235480877198544,-6.82593014342089,-0.3880333999376122,2,11.151038393934556,-6.99532915378063,-0.4005689254564269,2,11.319435033126707,-6.714815643210879,-0.4484596954179454,2,11.36358977323822,-6.888407535599119,-0.5667070832947702,2,11.2980961702023,-6.764201855456218,-0.2906736672261915,2,11.187997701964157,-7.0227036463185994,-0.7717243146022785,2,11.163262093638487,-6.818308934192803,-0.3029427454772047,2,11.274702326015369,-6.8018671302537745,-0.44111898234869307,2
35,1.3358198497753315,-2.7935438613231183,8.55856022852154,1,1.406687758909568,-2.710576038363052,8.41239168459679,1,1.4159844904007246,-2.8915285298054023,8.414185842664653,1,1.4576015980096733,-2.983777892260465,8.579843108691108,1,1.391353295374344,-2.627100727151518,8.394717986754525,1,1.3108180529540074,-2.7999919197975087,8.615402004140801,1,1.4543465396359008,-2.807357398490795,8.490011051405233,1,1.2737508197780922,-2.90424120419661,8.558930539093886,1,1.2392937625679614,-2.963683358982669,8.596282130494922,1,1.2209460244155876,-2.890797641527489,8.541316509272866,1,1.3504237657574996,-2.75535155898474,8.722888661317958,1,1.3170760245305804,-2.9996534697899526,8.376499851404876,1,1.182293553327718,-2.908314281386416,8.488806286434546,1,1.4533389082275339,-2.833707259480117,8.495247834745513,1,1.3772232985463306,-2.684025398305101,8.437593780047806,1,1.4580049416793777,-2.842402330669709,8.326284260986517,1,1.2465916102948562,-2.843646364637086,8.561288785741063,1,1.2300027540423448,-2.7495846907369947,8.627489561936672,1,1.3296309482822333,-2.7794545024602706,8.457834123500417,1,1.3648844889420033,-2.8525705973966833,8.513598730141629,1,1.489811020759726,-2.892039649599654,8.53854964782951,1,1.4338073624367698,-2.643446694876465,8.432973859485896,1,1.353900425867691,-2.8405230847315512,8.51001393065567,1,1.2237425007366158,-2.998772235014154,8.509255266400045,1,1.4314876483693468,-2.805996531445614,8.46541710166063,1,1.4079132062492998,-2.831413784443038,8.366070234927644,1,1.2389902280286638,-2.78090436094843,8.658629350317403,1,1.2832702421053623,-2.9013794401801,8.357741320549607,1,1.181222925786642,-2.691672705731072,8.6117647452954,1,1.4048958192540757,-2.8615554820089963,8.462933062370462,1
36,1.404756539506585,-2.0925649735661738,9.390285494406733,1,1.3408734794649682,-1.9947116935722529,9.238841871696895,1,1.3462380360807007,-2.148870171053831,9.221811233854977,1,1.257037433082452,-2.210086886127553,9.38782147948195,1,1.2861866522708083,-2.064700088819006,9.131839836764264,1,1.2861708567829118,-2.1886839833879725,9.521442849944156,1,1.3931067028566981,-2.0754901700832145,9.383882965992358,1,1.2358784575748778,-2.0735098194524357,9.210787514896529,1,1.2659071367816688,-2.1353158077460868,9.225765588245974,1,1.147059149638096,-2.2663936135484644,9.293596355097785,1,1.285945913823947,-2.091682576139594,9.412816509151869,1,1.3816542277649382,-2.363026285596878,9.113480428834361,1,1.1624784552053746,-2.2141638833006203,9.272783017380096,1,1.297048936873979,-1.955025785131698,9.393754679008511,1,1.2622605452840066,-2.0328205880193875,9.248550808180335,1,1.3423505790830808,-2.0140682393249234,9.047809297896702,1,1.2434571715587048,-2.2204502189594417,9.338790098663937,1,1.1769912312283464,-2.191539296421129,9.388812957446723,1,1.2220464819215044,-2.0733236807744357,9.208798335769457,1,1.290706632405773,-2.135526046661165,9.298615929069536,1,1.332915191942787,-2.0637430234449647,9.187901865301408,1,1.3036822705113287,-2.038481025442508,9.14251777009953,1,1.2324089504075824,-2.025534860316494,9.248415747571226,1,1.0838269413497932,-2.302956944147667,9.28902117486102,1,1.377492566270686,-2.0444198745380793,9.15538560845523,1,1.3489645248381428,-2.264155853805762,9.124301379428417,1,1.2923744722031882,-1.9366777999752811,9.25607176594072,1,1.3160133443817854,-2.1478323484203328,9.203721802561066,1,1.2849781885343432,-2.001901187459456,9.452096740815243,1,1.3341537308257954,-2.137948176210199,9.358570667599443,1
37,1.2025225342991,-1.2612148147623456,8.271137877356328,1,1.15693320528974,-1.1501554693946574,7.950952776630733,1,1.194638972371961,-1.193767190499363,7.869290180894996,1,0.9799727160709507,-1.204298220866981,8.18071758908654,1,1.1614180299379206,-1.0324479111476035,7.9392265813825835,1,1.040273463803635,-1.2733949525735544,8.197131198095212,1,1.2493787840515937,-1.1113274821521788,8.055406825742494,1,1.0117868402912849,-1.2149019692980905,8.017156768576111,1,0.9879587847305594,-1.2891242293114293,8.167987718700447,1,0.9624873977936192,-1.3881006675195096,8.099662792258854,1,1.0826351024018919,-1.1081144746583984,8.364302735404296,1,1.181844436625747,-1.2132306115398808,8.101286395476494,1,0.9985396295291916,-1.2595579581639866,8.108960421082072,1,1.0863028065856775,-1.1473321809866146,8.179315489646541,1,0.9394915423735712,-1.1531425452962283,8.161726307204383,1,1.0906044173171328,-1.137903766890088,7.908724998578575,1,0.9757332873571142,-1.1883509915269304,8.185479015904127,1,1.0270693351941598,-1.3373181619454724,8.316052241875997,1,1.015187889707204,-1.1952913874474442,7.92759532785074,1,1.2132038979586257,-1.24711035802118,8.180419649398463,1,1.2010103694337384,-1.1474509541606586,8.127034238857982,1,1.1334511909647347,-1.06407236719157,8.030522949448956,1,1.0019438269912013,-1.1664642776524083,8.09061735673531,1,0.9412614954151535,-1.339648038290745,8.14828469057725,1,1.1006613850594973,-1.1994907589020234,8.041318792709022,1,1.0977327579078922,-1.2417543229133379,7.9498992127772565,1,1.0672697307662877,-1.1560619892311648,8.142770504424156,1,1.039154195719402,-1.1925155145741713,7.9609358618742965,1,0.9746587113890008,-1.1750434914922216,8.266938506659518,1,1.018898274307379,-1.184260452914836,8.16757439138533,1
38,1.1123394259506723,-1.1924385305691105,8.878842822349403,1,1.1203419342776861,-1.1682513626112623,8.555282256166949,1,1.0318339494840238,-1.2314312731910686,8.60796243370286,1,0.8681168883478171,-1.288592716142934,8.703700485018517,1,1.2334507608939376,-1.1483638366717854,8.531486961368502,1,1.0284435115478785,-1.2893710980019446,8.859524206843666,1,1.0035469305861013,-1.2565121785016622,8.675803461298646,1,0.9654156121434544,-1.2630299896663137,8.747192022066901,1,0.9496154738430614,-1.3811556374781215,8.730011148007344,1,0.9497706135216765,-1.4204781179959367,8.71695386759753,1,1.068016029818577,-1.1942784587377802,8.871084791503945,1,1.04572240783889,-1.351802921683091,8.696656218246249,1,0.8553513931643428,-1.3447673835249947,8.851897806281945,1,1.0853386201087731,-1.1912853448507617,8.688053164785892,1,1.026591409534221,-1.0334114700188648,8.68749031815423,1,1.1221767436715935,-1.233083147504344,8.642268352739784,1,1.025802314908587,-1.2966918445845954,8.693159312628074,1,1.0041125076611015,-1.1717257234903629,8.819695264947933,1,0.9276252512746703,-1.2165499811312213,8.574220734639715,1,1.156259395389426,-1.356769522348977,8.657146867907548,1,1.2288581668044418,-1.1728056244683545,8.814837515038038,1,1.075577146876959,-1.1218587541187806,8.692630208342583,1,0.9300099982376914,-1.1415496969124737,8.779776939086739,1,0.7994772387389432,-1.4527757782066884,8.842914609603937,1,1.1077037846480917,-1.2680612284661017,8.843906916512879,1,1.0932845345060471,-1.1933766502766638,8.691595656515021,1,0.9768237122594505,-1.194839815730444,8.775784046741647,1,0.9512560548002298,-1.345911926686743,8.568496788697631,1,0.9869989467878078,-1.0730996667786599,8.761236532614921,1,1.1011396075808502,-1.1145059872508065,8.741006169887426,1
39,2.0913056567826276,-4.066520520937347,10.00460978992179,1,2.137366145977868,-3.9770159717278775,9.815633879308196,1,2.1651754866535633,-4.116128303659903,9.783004946165919,1,1.9778782227386091,-4.15146931650978,9.804505542892661,1,2.2270325761762377,-3.957778751582392,9.644879180891406,1,2.101653020259991,-4.2877593662468545,9.838516552212026,1,2.1488628906526897,-4.126419213102018,9.811656364598303,1,2.060133432173381,-4.112889022461561,9.63356993468778,1,2.0234446149107383,-4.251652836682854,9.8048813135007,1,1.933739858710947,-4.343158076182192,9.75153826785698,1,2.065755005874995,-4.023412032220887,9.898304133664684,1,2.1042760637222635,-4.239915209166298,9.692017814810963,1,1.9936096851359375,-4.195566134617776,9.894950486928387,1,2.1080511749637747,-4.02515851434632,9.755460365837592,1,2.056240989397792,-4.048278112134026,9.612974013369962,1,2.1456747155309066,-4.11740120928005,9.76830335765824,1,1.9454270974065162,-4.205660444040146,9.852447472040765,1,1.9729294554768395,-4.048997398206354,9.965239493548435,1,2.025456587594746,-3.931654698110443,9.680727552116013,1,2.1003859340759505,-4.162595045758084,9.80276893717879,1,2.1430551592177385,-4.1788668797385755,9.84998672114421,1,2.065084683372056,-4.012861909181393,9.735569979021566,1,2.1209654317828623,-3.9702615937489347,9.735048333948614,1,1.9370814302422277,-4.259229001074858,9.940937311363758,1,2.266013469734807,-4.181326511065634,9.748350056054269,1,2.102115290352125,-4.167438780148122,9.667144208429905,1,1.9989111611216868,-4.040507442622012,9.900784105646963,1,1.9700433332895657,-4.088848643592215,9.53016041273174,1,2.0008585622722177,-3.9253665281310224,9.769443337480357,1,1.9831881318509699,-4.066361163290271,9.807076284464616,1
40,-0.17414761563102893,-5.1440263447931525,8.316909559418786,1,-0.130418351442474,-5.019679332080809,8.260611462163428,1,-0.2134734108407913,-5.114425661308977,8.250226102929844,1,-0.3783350698429633,-5.252566949082565,8.32129889140554,1,-0.3695052514434728,-5.017006494362321,8.1460345589435,1,-0.23868783152240058,-5.2769776517237075,8.195996961953112,1,-0.1570954224546991,-5.229765582937822,8.300993275570335,1,-0.23178123164295925,-5.1009001938539145,8.221677141976054,1,-0.20364675909652274,-5.3292064685894385,8.36638517907783,1,-0.3327410421968915,-5.264385573255429,8.32970889842016,1,-0.3472434954620232,-4.990423461739345,8.38020351737165,1,-0.21075067237015443,-5.247612799795388,8.228328810869966,1,-0.4232123303289672,-5.340697041390576,8.383211071568828,1,-0.19508047746757393,-5.0706867630213575,8.281977407926345,1,-0.16952130420192163,-5.073569810267575,8.100928453686222,1,-0.14388172622251813,-5.125145331370088,8.167829421584683,1,-0.299142972701397,-5.120999685571594,8.293815154521436,1,-0.31357636476501427,-5.1188625818070275,8.440547551021563,1,-0.2530396858499952,-5.024652077535203,8.154763086604907,1,-0.221669315466583,-5.191523367413528,8.207880577780692,1,-0.01361832096176889,-5.122554857265817,8.332063025573515,1,-0.18345784327092446,-5.1018278548704155,8.182741389803846,1,-0.31905950354076573,-5.116340288837016,8.27192156787026,1,-0.31216916102292463,-5.293670498284875,8.251730598371633,1,-0.16398426238971403,-5.09465066463574,8.331727203908898,1,-0.18975152417831861,-5.274728796129974,8.11458802458733,1,-0.30806424377597563,-5.130733343103129,8.280208007224534,1,-0.3308414680589986,-5.247580854148303,8.098891839749555,1,-0.3451694714656684,-5.058684716423726,8.38833731262648,1,-0.21977537917149856,-5.15694266103768,8.401119836925647,1
41,0.5716506107089965,-2.7196629842585427,8.100537371640188,1,0.6245608343942644,-2.567516289112434,7.9639960525081905,1,0.5048010534223402,-2.666906172297422,8.033075790808685,1,0.4588596680128744,-2.7061493692207366,8.199355505712665,1,0.5654860687192648,-2.5438817762280146,7.943642194455089,1,0.4108497486910131,-2.7513625783563422,8.134493812604996,1,0.6235027863503573,-2.773383762065468,8.051820170913631,1,0.430769229706631,-2.65830397621858,8.024756083420492,1,0.509680799679849,-2.7860708241022216,8.055004483423552,1,0.39480863791301013,-2.772407694411021,8.067195188663009,1,0.5294973237912471,-2.6287287822939502,8.21051266458385,1,0.6024882486885348,-2.796379593216296,7.95876922400373,1,0.36668553107747803,-2.684717137377746,8.080375982961506,1,0.5414744110326837,-2.6224529494547606,8.178914031212477,1,0.4702515848280424,-2.6241262966674683,8.019130534235348,1,0.524129024689322,-2.613021887966585,7.902882477458962,1,0.4252726973873261,-2.7604671139697405,8.07528111703468,1,0.4048139552974783,-2.7737267257761373,8.231658644573482,1,0.5102561471300195,-2.5078720715989724,8.045627645200206,1,0.6247113273042985,-2.8167937677254846,7.937133442639282,1,0.4958485651431059,-2.6871533220050043,8.120816591158958,1,0.6121772432641471,-2.5215897009150257,7.995728550401049,1,0.5398183455126554,-2.567549027336118,7.894700129122676,1,0.36977552945611125,-2.7359671038052262,8.170199137097313,1,0.675873755247878,-2.7017489077827688,8.08874705560454,1,0.5637927206875802,-2.6510526895281767,8.000933229696933,1,0.3484699420567243,-2.560426106547612,8.198674212333792,1,0.3820365882095411,-2.7198157883800382,7.9060386057128795,1,0.44003891817593904,-2.6696435197501964,8.204569668252889,1,0.6680618532267016,-2.7017834796550235,8.18901267618053,1
42,1.9959177473108352,-1.8336779420936016,7.613780652994671,1,2.0646761689201427,-1.6523677519876043,7.516928316838063,1,1.9428383573601755,-1.7005995508729765,7.553702988346344,1,1.8760749479879442,-1.7534834807326525,7.699933255890888,1,2.035759620359436,-1.6002700272659411,7.526215025588437,1,1.8975220632529177,-1.8798207416697783,7.814880696945396,1,1.902617605530031,-1.7710040899964508,7.61888359397617,1,1.7979970213901335,-1.8210210273021805,7.595175002385584,1,1.9382964507219265,-1.8718629826345206,7.6411939326735006,1,1.7487404537700522,-1.9484713528044095,7.595229368393031,1,1.8642225016329625,-1.7374302225864686,7.711480392059487,1,1.8907012134299472,-1.7048693838612774,7.57043854195903,1,1.751560358395848,-1.9063553827487014,7.69869425075423,1,2.0310610091271095,-1.8059902315236178,7.606759340502213,1,1.8783966609130838,-1.6083949275977327,7.566738313195546,1,2.008090029320161,-1.6790483926638071,7.503876238288041,1,1.9164502909430294,-1.8187994954441165,7.603900556621936,1,1.8354318051614946,-1.7380789197688857,7.697481859610158,1,1.9831669986094034,-1.7437657374688638,7.435700190967445,1,1.9484351960736457,-1.9533522596019937,7.574121465971627,1,2.112104647895933,-1.7462872400593263,7.486021722819867,1,1.9879080248274603,-1.753779692207941,7.392248052564008,1,1.8353860581491406,-1.8479648095657537,7.519264169252703,1,1.7169259785807445,-1.866557277170245,7.630159091233397,1,2.072077790117789,-1.8164459896812615,7.544612378353248,1,1.9159982113624796,-1.8152527338491122,7.49648603435147,1,1.7829277660603693,-1.6936365561721467,7.6251057892031575,1,1.9404261048033469,-1.8659355845714167,7.4177845123171435,1,1.8671671063857709,-1.7593665238273808,7.634111980201663,1,1.966652941465132,-1.7466590055121352,7.689953504635456,1
43,1.1929907623470444,-1.7186597269309736,8.118784835376477,1,1.2546593505948245,-1.5423604368358905,7.983996240937566,1,1.052983608925983,-1.6791871580413635,7.919394905894233,1,0.9790721617324517,-1.7167795464024835,8.134261111773135,1,1.1268014322530953,-1.5048065228624972,7.875935086394401,1,0.9947660276324497,-1.8373669813181486,8.113479064866848,1,1.147811755450338,-1.6711714047021837,8.02727746087092,1,1.096928416414468,-1.7231360651568606,8.006963966031615,1,1.0563471336466206,-1.9094567460648992,8.018745998900055,1,1.0673301153615695,-1.8599951355003976,7.971819731925262,1,1.0315513637025586,-1.6189124444323353,8.038308786997455,1,1.0647541493074866,-1.8185536902153463,7.905522078467832,1,1.046083805385306,-1.8580130145020022,7.975736652924377,1,1.1427766717370043,-1.4839146888657384,8.010981014299041,1,1.0083205960973778,-1.4928681156981134,7.918950090571657,1,1.0415307729235637,-1.6200014411019663,7.810178440438445,1,0.9514996826556049,-1.68418297843303,8.101348960966838,1,0.9411620826013518,-1.6162005779867772,8.02567120904582,1,0.949074923484672,-1.5759346392328384,7.904751633818859,1,1.0630995522396731,-1.8041031428571501,8.017595661138204,1,1.1243097487612532,-1.7426766360738601,7.920229821884939,1,1.1191902367106497,-1.6042574763806299,7.87411781972622,1,0.9379019137905434,-1.6846537771368424,7.913634688531012,1,0.9855729700298226,-1.6898635088004728,7.992674709340075,1,1.3289454473135205,-1.7566760174059375,7.89799084853442,1,1.1113131793002415,-1.7300671415840778,7.865315559892455,1,0.9442347256736286,-1.5803152249315604,7.965896213992498,1,1.0674631940979211,-1.6978086091205242,7.82518838181877,1,0.9673990915274836,-1.613266363568685,7.950340152755801,1,1.0987674696289724,-1.6532142416017814,8.091136891046443,1
44,10.439911906117421,0.7767759612621865,0.7221872858803509,2,10.514788443242052,0.9379637450121898,0.5611314822635414,2,10.529959581287063,0.8379715863618069,0.5529659747161026,2,10.411750692351765,0.6628290916083526,0.6487704835732633,2,10.395926735319328,0.899351703421374,0.4403652592982751,2,10.341036343703035,0.7407700008879723,0.7893647276871878,2,10.47325495516466,0.7007352464948248,0.5956196103500928,2,10.225989501485524,0.7382030849906885,0.47986476861709476,2,10.393055696151423,0.5541870676479119,0.5928304282364828,2,10.291495389967706,0.6454791640362396,0.6581237120178398,2,10.321758346352597,0.919103037659505,0.6969908452139675,2,10.351715778899296,0.6635485522353818,0.47672675551371185,2,10.18524834018843,0.616581379406342,0.5913080835213903,2,10.548942357885077,0.9138293588005062,0.6382820414239679,2,10.326591954403279,0.9317582974140188,0.5547151705007366,2,10.394191256267138,0.8208141167244271,0.4015754707302416,2,10.319878660180597,0.724428978626115,0.693651818090315,2,10.31621916634437,0.8817901774233406,0.7675949168959232,2,10.358620994489804,0.8958842600258113,0.4632756748075892,2,10.405449806581208,0.5822220336909141,0.6010903202230348,2,10.481488958259337,0.7228076195899666,0.6861988605033419,2,10.357537610630633,0.9647948731597561,0.4096513550521996,2,10.348706203637594,0.9115756250388631,0.5138700122229396,2,10.174958733381315,0.5193246593482588,0.5783457584260969,2,10.49995766893524,0.7697028965217196,0.5230860474512379,2,10.398611999136104,0.6777640914722795,0.5098552182370644,2,10.231947331427378,0.8316210900474202,0.5562111422176735,2,10.233455671585572,0.6688629076874446,0.48829671147515313,2,10.241615329446043,0.9227955610738697,0.6184974564839113,2,10.401136379951687,0.720259113228414,0.6565913223718882,2
45,9.88671774651858,-7.362270638980297,2.93827418328197,2,9.818469335474157,-7.170507188893726,2.78469970541605,2,9.82430185850198,-7.274995236817801,2.7405299316180636,2,9.668013311913668,-7.411363085649905,2.926559044127591,2,9.827001097166278,-7.114371423045999,2.7309258439234476,2,9.700277616647174,-7.344264736809525,2.909872815406999,2,9.89734379451076,-7.335519170461534,2.9862776086223572,2,9.817568998419887,-7.281110504197753,2.786304038101366,2,9.710760353631978,-7.444093510490276,2.8663432045342017,2,9.695179034411293,-7.440626504572492,2.714908282722798,2,9.792964352309857,-7.223876108555942,2.9073435639668372,2,9.827435340430453,-7.327709641914719,2.75942029163758,2,9.610161389141885,-7.43015588710956,2.834492584888519,2,9.912407352500889,-7.190204279080712,2.7559937104911643,2,9.943901017203615,-7.1179670773114845,2.760318935307817,2,9.800185743697838,-7.275610826717009,2.6714188589376784,2,9.850278257148856,-7.357783305520545,2.8907937087736233,2,9.72810369351305,-7.31363401723476,2.871869868889894,2,9.806401983652414,-7.18137946194618,2.7331392027758294,2,9.932937897240752,-7.37906237700371,2.7723900813668,2,9.92557973860248,-7.166946858173518,2.8012467939765537,2,9.820361624501592,-7.162087381564172,2.775581562776924,2,9.687772217436105,-7.266552692412263,2.8295189286631097,2,9.659516433079107,-7.444564055224843,2.889475515187646,2,9.896796974412148,-7.2356568963361845,2.7972039433741114,2,9.846669577101633,-7.291745906157737,2.725039361053457,2,9.725891160439529,-7.208193312889904,2.927833705206641,2,9.69594434329833,-7.428541440710901,2.6605255199964692,2,9.734646722747229,-7.188729548518706,2.900636444883984,2,9.759421072924512,-7.250785376071435,2.818666491051735,2
46,9.757250291701805,-5.456527398876298,2.264532105297421,2,9.727524227326663,-5.318453297319545,2.241286309064521,2,9.775968227434626,-5.615249979635433,2.1661886596645497,2,9.612186901792377,-5.562931457848677,2.1932635460739873,2,9.783362933995571,-5.366574360933959,2.0893195998018426,2,9.738572233507861,-5.529279230603291,2.1890970278182413,2,9.847094472212376,-5.369690961888949,2.2898261750134483,2,9.697995004526307,-5.479219290226523,2.141777839979099,2,9.626421767891877,-5.656863190945154,2.2589744504222096,2,9.61585406190408,-5.593329967837069,2.252142477600666,2,9.746976069508083,-5.322284395881915,2.4123553981503227,2,9.762476502178469,-5.505843767981027,2.1571233959344696,2,9.53987037773903,-5.628231754269357,2.2364483240294173,2,9.856462545203195,-5.425110300747775,2.3249230135497516,2,9.595897356610786,-5.4111123297110195,2.2213445927859574,2,9.779435392412077,-5.3821356081905956,2.056208069299553,2,9.525729199203171,-5.557794564494277,2.2309061364774254,2,9.715137304800537,-5.465049029527745,2.3773541293218594,2,9.51748614894117,-5.299163936981967,2.13474560544865,2,9.727387180336194,-5.574092545275889,2.2055580176224883,2,9.802909656827003,-5.367470993406029,2.10763172996081,2,9.68952320163876,-5.341923592319323,2.1316479846475302,2,9.651688791635966,-5.422985746259689,2.1768557312579717,2,9.491735450852918,-5.5330399340324234,2.2404308834500144,2,9.80478659443229,-5.473403003791858,2.1968027883877395,2,9.778353842370146,-5.557814156604985,2.094401076719545,2,9.61987941404859,-5.299744876832091,2.3246126696010045,2,9.682275881920097,-5.508007810738106,2.0353045047721054,2,9.757103560581879,-5.4488683688908255,2.3367797449736294,2,9.7425186088272,-5.535283985809909,2.286913921808619,2
47,10.673568695718991,-3.0043609502881417,-0.367358189327961,2,10.680215989798773,-2.821972992485424,-0.613545439497861,2,10.60811121840657,-2.797316296148015,-0.6239820796672783,2,10.560728510084779,-2.9378932424884296,-0.43895562264369875,2,10.584349350672113,-2.720639821102328,-0.6561683268018159,2,10.611968305672887,-3.0264120992714525,-0.48129540133565885,2,10.72464298593465,-2.855625291270484,-0.41352991056723615,2,10.609736794382037,-2.931635589548982,-0.586865297752366,2,10.597865573143313,-3.035454383591933,-0.5707112188746386,2,10.37800527039934,-3.0496652062188825,-0.5866100982891632,2,10.546536165840593,-2.8540287225625227,-0.5102417975388414,2,10.582453309715628,-2.9644076135885133,-0.5421643349213283,2,10.420005496692747,-2.9805761211505764,-0.4745399931543965,2,10.610533680663085,-2.740020068539404,-0.38943076658017417,2,10.51400489360764,-2.7220054883073828,-0.5446645514522488,2,10.623650739297885,-2.8929120785840263,-0.6963180882352016,2,10.461216877786663,-2.9908536489172772,-0.5421254419077939,2,10.535921419124175,-3.050829574889389,-0.3748101974022828,2,10.616204871922923,-2.8169400720321986,-0.6351731365831075,2,10.622918003469351,-2.9694775293614497,-0.5210422117878165,2,10.707438095109026,-2.8259422207295892,-0.48747385943143623,2,10.602520969310339,-2.829662363411964,-0.5631648287137896,2,10.54855557476827,-2.887623982525347,-0.5699994477318973,2,10.361636104083544,-3.0376203898744496,-0.44737159594950754,2,10.719157872634616,-2.9256974231295403,-0.5076176271646897,2,10.672159824087348,-2.885128899875495,-0.5942528941504341,2,10.489815132165054,-2.8111730532507986,-0.41309752715437253,2,10.579543274788708,-3.047186340245313,-0.6577541151149173,2,10.396152998729544,-2.734885617405165,-0.5147435841636858,2,10.765312912382118,-2.9483789536232323,-0.42542461493285966,2
48,9.391380366424691,-3.6647010635528594,0.614710372030263,2,9.354973298028783,-3.47775256091457,0.53373090155109,2,9.274489238136814,-3.7110444332910086,0.59133202978561,2,9.273183584834365,-3.6634184618227987,0.5722985224959607,2,9.42186040930796,-3.4965082445052404,0.5204648213824863,2,9.331429316929025,-3.70261038225346,0.7106115101517381,2,9.37258344410471,-3.7064734205030403,0.5329508535382976,2,9.258777859331477,-3.6439904947660784,0.569340497432517,2,9.253942806531054,-3.749722040110166,0.5639494348514618,2,9.153269537874209,-3.7353092307682427,0.6136895072783886,2,9.346228146997365,-3.4946371457414873,0.7162753866544072,2,9.398407747874796,-3.778308759978273,0.6074549033376727,2,9.15216273210179,-3.6913848578591373,0.5821484888571767,2,9.371417856390497,-3.540538943233302,0.679114301956722,2,9.288145731578462,-3.556688845146823,0.45872737545639763,2,9.267615672251017,-3.492830610011469,0.5206640532841178,2,9.337571947048577,-3.732496448080507,0.5845062171050974,2,9.183920601590891,-3.5861695879656845,0.7697089145229183,2,9.450078435791747,-3.5637722416617947,0.409168083452095,2,9.330839447170105,-3.65484439098432,0.5729669836398987,2,9.333107129917684,-3.518597649078081,0.6414307286498838,2,9.327675712529407,-3.6282736911423896,0.5411336727107138,2,9.244949739247145,-3.6651516626787113,0.4941621899388755,2,9.093044052667468,-3.789771629415057,0.5716806694676674,2,9.384136279873779,-3.5368897387842604,0.5204622494651511,2,9.402442876456055,-3.689404489536813,0.3916582974719756,2,9.322411586037514,-3.674486193118412,0.46795303006070155,2,9.231717589232565,-3.7212464383914066,0.44157367025258515,2,9.123810972246018,-3.54798352376033,0.7084066702188349,2,9.306952365363625,-3.5245878290384995,0.6299236929994952,2
49,11.582134788984304,-4.7133428090085765,-1.526484243420897,2,11.629805281146755,-4.5569992122702265,-1.7534246007191376,2,11.639633142101792,-4.65431587166676,-1.677397283348003,2,11.61237594780203,-4.799529749396609,-1.651151860214479,2,11.663240576010779,-4.580620842700547,-1.8954143561974126,2,11.641414349321476,-4.743971718363305,-1.5831670209075315,2,11.732793697305222,-4.724782616883366,-1.7517807529413822,2,11.406966070866087,-4.716405698411826,-1.7720102934192838,2,11.58592196433218,-4.835454330557049,-1.746576154681708,2,11.40728334687308,-4.851614512041554,-1.702759252823751,2,11.568288784458115,-4.609036599615499,-1.6684428587334046,2,11.74768742788187,-4.829358858797084,-1.679870791976544,2,11.523099804151867,-4.934853136522908,-1.6378590831915611,2,11.73334530843446,-4.638700281703232,-1.6778704279755616,2,11.725938877034823,-4.704975493821861,-1.7374437877802684,2,11.631951832444454,-4.709741397047245,-1.867801737920296,2,11.520544715829887,-4.742904069861257,-1.6424661461748993,2,11.629874792770641,-4.6550833026120495,-1.614329531571137,2,11.648736248814723,-4.77239055648992,-1.7998849783931294,2,11.606109806303913,-4.7475020489064965,-1.6718197081718276,2,11.821114980834906,-4.786479465999202,-1.7113312783287067,2,11.638573423121947,-4.577199559822947,-1.7871283862118337,2,11.648751979684297,-4.690658318708114,-1.7666198138583566,2,11.292534913926085,-4.9001018646725605,-1.7186319175502358,2,11.685285424598627,-4.792921224703568,-1.7615600779789127,2,11.675618065872744,-4.701161079271124,-1.8937762145249322,2,11.550099466071751,-4.615489124815324,-1.669187191819792,2,11.538650600841272,-4.909064127090993,-1.915062238778461,2,11.448978000975726,-4.5642287632268,-1.5897743239551316,2,11.599862297267329,-4.743986046424872,-1.631425910109331,2
50,9.96319536785063,-3.1869268572546163,3.3311101175236475,2,9.984414879770458,-3.1413070016113127,2.9869656252169094,2,10.032549027416046,-3.3561538976668324,3.0697889506224554,2,9.87424264790546,-3.4978578803549274,3.290075825361901,2,9.923310201722396,-3.2129995493495858,2.915552725873082,2,9.874886543871753,-3.4044454408391,3.1576357501403542,2,9.993024956891444,-3.2875945639919815,3.1193985429433524,2,9.784179726066249,-3.374768199935146,3.01540391179668,2,9.8897161012155,-3.4088184208731525,3.0552268926252815,2,9.819214055142595,-3.4607354148608014,2.973016904247798,2,9.955355064971686,-3.21391909801788,3.2042666393266637,2,9.99756782058997,-3.5644138107399344,3.0185440930977685,2,9.771004275818706,-3.4619007171428655,2.9473773565351875,2,10.065162555358794,-3.3165533118224597,3.0501212936765123,2,9.964769191206027,-3.2517192726358375,2.8988151421235635,2,10.014767185966546,-3.2605881863782535,2.8235923333487745,2,9.848221740502828,-3.3817498129258077,3.1144833342801244,2,9.87740474727835,-3.3012177501033513,3.1383890225598416,2,9.933619153091975,-3.2198318691117773,2.9777916380692733,2,9.908917423760691,-3.3525091674277228,3.0666396140524954,2,9.975239230989066,-3.2914160613397683,3.0821635048773883,2,10.02586050169574,-3.1858352007098505,2.9015073962682014,2,9.877786149087301,-3.242682333346391,2.892267723444354,2,9.70247364284464,-3.4162103134710433,3.167795276648448,2,10.056265566618752,-3.2011477676701756,3.0849796746582308,2,10.098888099827594,-3.321896863143344,2.9489537340965413,2,9.932541572551456,-3.1779531558062244,3.1695123523413193,2,9.866206409117956,-3.371586466707622,2.93664333237379,2,9.800113234549595,-3.2452377128222203,3.166744526201866,2,9.98978896803332,-3.295648726926419,3.141851749540958,2
51,11.19669862520393,-3.299887024485787,-1.056396619463225,2,11.224990955033125,-3.0340618132518467,-1.2581044830008465,2,11.177778911558825,-3.177709507994258,-1.275539843512814,2,11.154132964842574,-3.2236249684120883,-1.1115487241917754,2,11.28941801148244,-3.063411287471822,-1.2525107532440123,2,11.108131285583957,-3.245490762446895,-1.111601263203905,2,11.256458555819924,-3.233155206149412,-1.0349612527231404,2,11.107485612801794,-3.1451355902373974,-1.1768427860709894,2,11.217316586393492,-3.3605370360066913,-1.0855213637140777,2,11.073832957850568,-3.4279321089089185,-1.156070542427504,2,11.125676316269784,-3.2169525927161,-1.083649435628354,2,11.282652713354702,-3.322029077304514,-1.2403127374974148,2,11.015767543325135,-3.341213863908378,-1.1204174859031186,2,11.241667429900597,-3.0692191859518374,-1.1997399408968246,2,11.25596152328788,-3.0901865090140466,-1.2197929249807524,2,11.229268211147845,-3.0365378768632194,-1.2840655248363828,2,11.064015585480684,-3.3153666482306177,-1.164642840363042,2,11.109430810278587,-3.1378044033557133,-1.0108739073251818,2,11.141275370334075,-3.0925950207473814,-1.2924277461250724,2,11.214775652953271,-3.205432729791466,-1.2627166453642278,2,11.217730823694858,-3.1569958813721257,-1.238560887454893,2,11.171143463527075,-3.051732417781289,-1.430512800795192,2,11.112368764720896,-3.149065724181601,-1.2442962463238634,2,11.138526627568332,-3.3302923031524485,-1.1230454855829302,2,11.233190362285896,-3.2742771155421413,-1.0914977966325057,2,11.245000317089922,-3.3301509732193706,-1.3595670656674836,2,11.03313084069634,-3.2705596863969135,-1.2295733423764654,2,11.0821760474321,-3.417420998519947,-1.3997155058526352,2,11.00364085099239,-3.2250903268778233,-1.0880632062241786,2,11.248566667474984,-3.148154776699601,-1.0716548996673263,2
52,10.123910344616384,-5.080075774740278,2.7010816556135238,2,10.150472897714081,-4.992693867200768,2.5141347976856854,2,10.094112931728445,-5.233832221677481,2.4361990955575297,2,9.988493743523104,-5.253836741746054,2.5628880842175565,2,10.066571178541306,-4.887837648008187,2.439124935819082,2,10.175493330967097,-5.2710772892859445,2.7210754744820465,2,10.23266229071248,-5.195238427187228,2.537629994904878,2,9.985855530696641,-5.1916458958643545,2.601109443171558,2,10.157764768530024,-5.2793451545553705,2.6131170423509937,2,10.000080586128872,-5.269192699297946,2.5816008352745756,2,10.02154694363978,-5.177003916806927,2.5757560403760107,2,10.097697014831915,-5.266739512041567,2.481278943312706,2,9.928284393519212,-5.276104866896419,2.54499183277105,2,10.187783425826446,-5.072722957151418,2.5416666822181733,2,10.077040703985688,-5.099581755715938,2.4808544036023092,2,10.114020254165228,-5.056532545945558,2.367983144390502,2,10.120524557666634,-5.201142846372078,2.6715856853554834,2,10.034536453653264,-5.207117134119212,2.6912813573736383,2,10.10898092401429,-5.010748884503622,2.2798602530343044,2,10.08367214308388,-5.232905011516973,2.5180806603917945,2,10.22306106505913,-5.146025327555596,2.5277507503678174,2,10.167060758905318,-5.07408835533664,2.481088227676133,2,10.021230272093135,-5.012701752265123,2.434205516747313,2,9.778221720092876,-5.312912108219393,2.6200385788909797,2,10.096455974071223,-5.151537420830606,2.544193979440975,2,10.078896769052093,-5.181765690565824,2.4749239427056455,2,10.084160863142552,-5.152484893548263,2.6348460668644513,2,10.110837406978089,-5.285987973786345,2.459770039396257,2,10.036174845485728,-5.166592477387787,2.4941651039665476,2,10.147441701804505,-5.01321209283821,2.671419833025239,2
53,9.965001092860977,-2.348873737041776,2.933835773533337,2,9.991103005354047,-2.2233906822444296,2.809139345368119,2,9.97493931717795,-2.3444464475914844,2.8673561497574562,2,9.902751763889398,-2.348098182217948,2.936496409918862,2,9.945233039451503,-2.1933424627764233,2.6957545153994733,2,9.880349334658337,-2.4069321747483814,2.9319239250268057,2,10.00152271453595,-2.356479088441179,2.904140932626309,2,9.826744170333019,-2.3444216086631275,2.8248327406253813,2,9.86112825935906,-2.5262573111691844,2.789612221796402,2,9.881582218257783,-2.45031886926185,2.851588848843078,2,9.985684919516821,-2.207210609811505,3.038609739919685,2,9.918392367689268,-2.4136721556320597,2.7066285560212573,2,9.730995580140133,-2.352864757838641,2.867520453923587,2,10.013625480227933,-2.2264559550945258,3.042841100190213,2,9.836004161148447,-2.241546027295462,2.804758324063606,2,10.028344687319544,-2.263792550393863,2.667229553942754,2,9.743724225272704,-2.4118505142618454,2.939299265165588,2,9.863710783861066,-2.3627665187175073,2.877815253628853,2,10.006507924873995,-2.316743688481979,2.732347128435886,2,9.963199080880052,-2.5592142381621805,2.783517698570819,2,10.006352054623777,-2.4238987103489413,2.7443879008761956,2,9.935133730360821,-2.264519817686377,2.7357459575906855,2,9.894057484077406,-2.303679256630774,2.9091045534267304,2,9.672393381937491,-2.421587469657576,2.8766649770397663,2,9.949119492634594,-2.3116535811668513,2.8629839037865765,2,9.954907636760453,-2.4159965582065297,2.7379746202695854,2,9.937288949381854,-2.236108633983823,2.8648331800525897,2,9.90761994854923,-2.5274035539507476,2.6863569849593163,2,9.731844070880278,-2.300688757514729,2.940447312836521,2,9.941931555635662,-2.220490364972521,2.890088865412047,2
54,10.170342373551922,-7.706066559955642,-3.4591635203362605,2,10.179893692485727,-7.5756618772578825,-3.5697888436812066,2,10.094689085502146,-7.770055146056111,-3.4905859184701913,2,10.001086862221038,-7.807681102642118,-3.4329535223720957,2,10.043381408297767,-7.631080441894462,-3.6984299721389724,2,9.908117942063642,-7.717103989707786,-3.333484343061497,2,10.125096409842422,-7.643617281449866,-3.4925255215836692,2,9.981565720826126,-7.848667549622061,-3.4993802243789003,2,9.89224231112272,-7.8218539067971005,-3.4547925755164632,2,9.820162003148763,-7.839174938735947,-3.454769897099918,2,9.934222154467273,-7.580829008847866,-3.482865405758983,2,10.101887656109785,-7.723318899225785,-3.5024011499508707,2,9.866228051758798,-7.876931090694485,-3.4449889261512827,2,10.118382285447508,-7.604878974235663,-3.4117201301830287,2,9.991593779008776,-7.591037074844819,-3.4994004576015505,2,10.171052542828027,-7.663580170511012,-3.549310371585203,2,10.013898426006914,-7.730043603553362,-3.5568049260696624,2,9.901836165881884,-7.733295640327397,-3.315488437323694,2,9.992611663900686,-7.643956896994595,-3.5303030733317367,2,10.102049664104925,-7.880343277383791,-3.490480252587364,2,10.197612983494798,-7.632102813694096,-3.525449550225418,2,10.007485631926333,-7.578786393148111,-3.5201064062423386,2,9.987680035301933,-7.64015897161762,-3.4535122919989742,2,9.970270527121304,-7.720665364687188,-3.3614337827537057,2,10.225686265799352,-7.647839105335601,-3.4863850114918953,2,10.268937138990735,-7.733375933712788,-3.46680022887648,2,10.00123905039875,-7.586783036008971,-3.4723844287633616,2,9.981957255687481,-7.885531067026655,-3.66427952207605,2,9.892207053259904,-7.604877826065052,-3.415455052080744,2,10.092918504137147,-7.645697037412984,-3.4811197962435423,2
55,8.995379410845784,-5.297616100055636,-0.9369920715748573,2,9.087824306851102,-5.100527794995788,-1.0090536192571002,2,9.130002002499793,-5.234103626459382,-1.0537834788562497,2,9.004259696606388,-5.395568651156969,-1.00985184668818,2,9.173001811418567,-5.081267185541082,-1.282559391470137,2,9.016524167541432,-5.285712804291118,-0.8905118540912952,2,9.127738938139053,-5.212152956241019,-1.0118152915767618,2,8.901282155784372,-5.311937991965586,-1.1231617470922117,2,8.921828040792427,-5.4083566997278005,-0.9746512113585382,2,8.828731460568212,-5.287783029153114,-0.9890834862221434,2,8.896890080613488,-5.072988079235077,-0.8840455320392335,2,9.035389437425227,-5.362349662186744,-1.1025872076594974,2,8.827575603003782,-5.308351743130276,-0.8999611270870383,2,9.232789319545354,-5.150833594601413,-0.9029877829909526,2,8.977747892968923,-5.172575765565967,-1.0522213570258432,2,9.098341183737597,-5.2522000970490845,-1.1851886332323252,2,8.817709339683814,-5.298383268099365,-0.941456099740598,2,8.915249659333561,-5.2305782869398545,-0.7569294887791529,2,9.051714393351174,-5.3113225655875125,-1.1800811608812207,2,9.075531817359215,-5.319754741032045,-1.162563445637418,2,9.081967310525414,-5.222031212520151,-0.9251124044419899,2,9.06522622695462,-5.262322807881928,-1.0765087330681025,2,8.903515700792537,-5.246058293249543,-0.9930318505672481,2,8.77488729864551,-5.482256579478525,-0.9681707406050938,2,9.074415461304994,-5.376527457506203,-1.0317119582890788,2,8.963583204968455,-5.35037470413701,-1.200578766988129,2,8.917278925426032,-5.208647410411055,-1.0098081750354282,2,8.865895656513283,-5.394438497148643,-0.9799704138504478,2,8.854810017351355,-5.171314081523544,-0.9078458425144488,2,8.938316635663595,-5.323328244327079,-0.8600494033593468,2
56,10.163982496062653,-6.014060437115355,0.5873715330452609,2,10.282735085939262,-5.9394898762151875,0.4380296709871273,2,10.11121265807074,-6.038550794457896,0.4422576928598529,2,9.871936853587249,-6.063131380849347,0.7277553294089328,2,10.061820566005819,-5.90073910704383,0.5320064537513602,2,10.023259220617092,-6.016005729556841,0.6294324667092457,2,10.171346820624162,-6.06319091480782,0.5966629008088399,2,9.896895893626418,-6.101029955835009,0.5921977270275722,2,9.969256763051394,-6.220850359711831,0.6097507631089061,2,9.960103915878971,-6.128753420790261,0.6256932183236347,2,9.919372724570744,-6.043459645547826,0.7130852249608541,2,10.04265690795582,-6.076816602909929,0.575347960985038,2,9.956071867954028,-6.146896119217422,0.6274987593859479,2,10.180288577411977,-5.911948940232043,0.6474834939018135,2,10.044444052933523,-5.893931666097049,0.5697030502947561,2,9.96391834128391,-6.001829196413144,0.38494034820404394,2,9.870899376046879,-5.975619160116966,0.6510962517457783,2,9.965552808047898,-5.965258890632334,0.7212969392227244,2,10.06650364220529,-6.048741183668949,0.4964426610034456,2,10.10304121268381,-6.073914639847727,0.6190372044351611,2,10.172467326489828,-6.032367828314773,0.34357194653489065,2,10.1125184200398,-5.87409471742476,0.4712725148329402,2,10.04268998140405,-5.89340757561031,0.4267128055235069,2,9.866814646413445,-6.129983671683378,0.6432541550665435,2,10.198212804172494,-6.006646201327346,0.5132088332918019,2,10.131242961480693,-6.195736941609253,0.46838556957814154,2,9.98546305646798,-5.928820989542193,0.6823873367856423,2,9.953099477405752,-6.168629010466311,0.41381685339270546,2,10.002763609631112,-5.821447647966956,0.5155444180525163,2,10.05554581290693,-6.052200203219978,0.6209527822503802,2
57,9.37862000904076,-1.7821813731631908,0.691014844706552,2,9.518363433087657,-1.6702860894672322,0.6084086485605393,2,9.502333590630807,-1.740930546719223,0.6307053184950345,2,9.291318426735442,-1.66307596217774,0.7904655507617749,2,9.347330299444723,-1.587614081329577,0.550836163421031,2,9.478695728510552,-1.8107431736222463,0.7235547220288716,2,9.576331640883245,-1.7236472607566258,0.6804094206588486,2,9.396883053224736,-1.8260121329065855,0.6516817556308849,2,9.44668567284396,-1.8904580436118061,0.6509493037957194,2,9.324785635895665,-1.8801249897015841,0.6610302658005012,2,9.44447759400609,-1.6573707204232466,0.879107568952842,2,9.555459373714319,-1.8743194952350213,0.6150942613360995,2,9.201837890623262,-1.7760361014424506,0.7121800447748398,2,9.537592918713283,-1.6754952846669404,0.7299517146375498,2,9.404653897088238,-1.676258765665254,0.611589229436404,2,9.49030372180038,-1.757321819635314,0.5395316195834124,2,9.273404349431608,-1.749486498215856,0.7428036919476697,2,9.37381977102015,-1.7457118872280648,0.7421340784234711,2,9.509957998069048,-1.6533876637265368,0.5206077648216447,2,9.413287823130261,-1.776193252995736,0.5814509179824843,2,9.553113922114468,-1.6766088158747692,0.6441080653096344,2,9.425083551149092,-1.6647105442987906,0.5750850023219043,2,9.347587626204996,-1.7676467310103752,0.6811380455994049,2,9.26379909281306,-1.8888801726258806,0.694246518270249,2,9.483951363212306,-1.7856742314288196,0.6298195301827135,2,9.611811871769136,-1.7675630728683576,0.5076483828477909,2,9.396605399995032,-1.605043317050052,0.7662120445543769,2,9.326020791446197,-1.816292943052356,0.5957879297308868,2,9.313871640036933,-1.666554725796928,0.6148973263518718,2,9.319862155946657,-1.7556877792580288,0.7089219944628229,2
58,8.651580177412743,0.05247765867972039,5.2341706860692705,2,8.682810079364423,0.11649917582534401,4.956779797128246,2,8.698931628008333,-0.18873680279195845,4.893042776415191,2,8.587218955707725,-0.021401201818585305,5.100182996943593,2,8.633800389632162,0.0972156600774226,4.8502750360588855,2,8.594998345624845,-0.08778552656301405,5.103786650145946,2,8.834111311281717,-0.013470116913606675,4.984628629528513,2,8.566718780819826,0.11625524478712156,4.983107169288477,2,8.644091704876663,-0.14522887880180002,4.968743386903025,2,8.422104676361865,-0.10259275080082816,5.093665765554336,2,8.650729464694127,-0.009753029161012984,5.0528882285722,2,8.67996501592214,-0.05801876435809557,5.024956639063388,2,8.538735731777384,-0.15080226601895574,5.032192473171791,2,8.651740974289265,0.11427928981877372,5.018489752077963,2,8.645018170510388,0.02910206486266391,4.97387345257686,2,8.659645449518866,-0.077562196642977,4.87281450437444,2,8.523033571518756,-0.11545344896606596,5.118542031915581,2,8.611488593046571,-0.010661081885257117,5.194444412166174,2,8.669786640381824,0.13002129470933704,4.8911801785967155,2,8.652588338147487,0.09084273063385336,4.950436510859544,2,8.796753403992824,0.018310700163280836,4.988317746548413,2,8.465662250625222,0.1006819346818212,4.813730359000923,2,8.586756294200482,0.08519543351232559,4.943814236266573,2,8.35790767432312,-0.12002743573849892,5.010704957095104,2,8.771256032124711,0.049090685566169086,5.0371018126798,2,8.594785593011323,-0.21072393816757018,4.907935863059279,2,8.571754099509066,0.02009754112251697,5.058429695946327,2,8.533782589456736,-0.1371368957559876,4.880961500790371,2,8.428543121313874,0.06707809686884039,5.124581889059082,2,8.644191054886663,0.15739409495726359,4.967920249909443,2
59,0.4661501606109894,-0.5853640874290277,8.699755693625132,1,0.4851736962527507,-0.39268039320356773,8.548537695245056,1,0.3713058883699556,-0.5872370178587091,8.548758054353703,1,0.16346032624560156,-0.5813803099010459,8.60849625502305,1,0.480754014885997,-0.31280877449620986,8.458841690745905,1,0.3639317731979901,-0.6398201653918609,8.794398615305242,1,0.5212917772987595,-0.5967900078579219,8.53583985527587,1,0.3055965552246284,-0.5373148245608511,8.53259146814513,1,0.31170910278071706,-0.6493093187803883,8.592163575096468,1,0.35753400990649487,-0.5289801032401761,8.583191684929485,1,0.36762211470213363,-0.515970305037631,8.671091058175769,1,0.4888797976419581,-0.6576191450145824,8.50373555784069,1,0.2273664413354307,-0.6810402174509259,8.674634058449751,1,0.43787242237770946,-0.38515356844156823,8.658065529051758,1,0.35157079019030063,-0.5386817224940478,8.594882270894344,1,0.33072265423561426,-0.47019197518927996,8.416796833668315,1,0.2725563708540827,-0.7037529550844481,8.620397959404901,1,0.3871729630172091,-0.5167341780494124,8.777786262598564,1,0.4005276179376273,-0.3910848630779473,8.475289828398013,1,0.4826946728973035,-0.5897532863903141,8.538745620335769,1,0.49137567906654633,-0.47433060806463495,8.608566783021525,1,0.5051202229239334,-0.3016487309591155,8.541635527608191,1,0.25708980612518617,-0.44238163018774934,8.553009647288974,1,0.3041366360666339,-0.6029768537329827,8.583401128313291,1,0.5267523327925132,-0.5714297290787581,8.593372883228769,1,0.5483363679810994,-0.5915143654997614,8.48661103126278,1,0.4185813830652261,-0.5287924247038192,8.750072502840833,1,0.3510327194769915,-0.635494681445173,8.51666291351023,1,0.31138183295698707,-0.5085974893540579,8.587995510500908,1,0.42254300272310297,-0.48221821235775775,8.674829241804566,1
60,0.3939467742021981,-2.267855692261399,8.43407671473952,1,0.4027036996160235,-2.2448575123919445,8.127816759431557,1,0.2850753446736931,-2.3352835067845032,8.321359032324429,1,0.25445102308173867,-2.3458363234871484,8.341269800818665,1,0.4028545244526789,-2.202914706680167,8.108925346459008,1,0.3590875685812266,-2.4991558636299507,8.476639697498443,1,0.35382701542901,-2.331934296920371,8.230265948103986,1,0.265600740465635,-2.2565389957323805,8.277039240585738,1,0.23069172586565717,-2.4248968703959357,8.357597446943913,1,0.28072400279279375,-2.4184024806802946,8.391094295994774,1,0.18859039367459818,-2.2794829552902254,8.494983188438995,1,0.3086826690891784,-2.367664660623732,8.220068901917948,1,0.14747588627492234,-2.434527503257337,8.463255507572388,1,0.4015891473425326,-2.127233389911961,8.289904004296542,1,0.24104474174570165,-2.2335656163135282,8.356812835246602,1,0.27783078106300685,-2.3787246880622175,8.029884917185818,1,0.17138658361533401,-2.44230760078873,8.360202671501922,1,0.26227416987431335,-2.347793656963595,8.343228448249516,1,0.2990477688881005,-2.2206870779130807,8.135553601492882,1,0.40160917462915835,-2.3864614141909,8.17903062576271,1,0.32511829833360917,-2.3450378852683236,8.172808639403256,1,0.38690366718749114,-2.234239486105155,8.118299850653306,1,0.29386250976381006,-2.293767723434798,8.25311224403818,1,0.1366668206498992,-2.3746927486690534,8.380314605735965,1,0.5244633062000224,-2.4278665265184514,8.2696313745515,1,0.45062876162920257,-2.2641246605630814,8.194574693850187,1,0.1989563472416312,-2.2652016966977855,8.238440482499511,1,0.33740130381922484,-2.4723932522131427,8.21003738203506,1,0.14040004597541605,-2.1731194775688807,8.241628370235857,1,0.400802744208702,-2.2932081977296694,8.389620385166069,1
61,1.175514692625188,-2.353601693272368,9.589809931466194,1,1.1874970818566501,-2.1790467757083354,9.505473398215653,1,1.0519091550425022,-2.325649609969051,9.53354437645782,1,1.0625865816672948,-2.451584266826575,9.649521895282934,1,1.2664694967812042,-2.06274754203419,9.342969531588722,1,0.9492800028695011,-2.450550659490368,9.668171963054679,1,1.1862816148994586,-2.369113776872659,9.569077275740003,1,1.0026952567221852,-2.257932010883498,9.498763275040554,1,0.9612890096606171,-2.4664050365942582,9.534602269355307,1,0.9877335593972921,-2.5461247638296407,9.49629753189135,1,1.02128371820976,-2.205556782256485,9.696094262433373,1,1.2239999277882028,-2.3669809554460706,9.493941079328483,1,0.848741277926307,-2.334784119674744,9.550949041524797,1,1.2562718116444025,-2.2663960492137094,9.58804954061837,1,0.9984647812880116,-2.2396690785393756,9.438998039652063,1,1.177267274284898,-2.226509708538046,9.35714544585442,1,0.9362164061283956,-2.3604847217016376,9.558512737055986,1,0.9022578681522029,-2.2250518665130516,9.626538968985546,1,1.0468151841771471,-2.103387020884967,9.44259925359885,1,1.1220572467240792,-2.339114445042211,9.438625044235957,1,1.1509155624505145,-2.25500382578286,9.452058120903978,1,1.1835937471704425,-2.188715885328955,9.351939088982446,1,0.9700311555103909,-2.2295993064090815,9.378650901061585,1,0.8798710111334995,-2.4690781622280498,9.492676199870447,1,1.2580647273824614,-2.2687791104085044,9.446866927366337,1,1.113634836411472,-2.272906359581455,9.398297934812277,1,1.0872395101765797,-2.218734408363582,9.504603241725762,1,1.0272897234586973,-2.35765000116119,9.3463328993254,1,0.8984976865525723,-2.1201542674759244,9.50291153477769,1,1.0605750918070802,-2.2577439523613574,9.540345771145162,1
62,0.7994200416926156,-1.9201052769800926,10.636650687038076,1,0.9049626337209311,-1.7817514484936932,10.450071067069867,1,0.6559922968203457,-1.8829475716687916,10.516864765676646,1,0.5833939110613898,-2.015408237519021,10.614039314138871,1,0.8332690791767942,-1.811125155956998,10.345056863259632,1,0.6254443550385433,-1.9814904761606826,10.598432495377985,1,0.802679446762699,-1.8250269115000444,10.61500878767971,1,0.6958522142242479,-1.8518061530992898,10.54486055606226,1,0.6770704960502923,-1.9788657009181039,10.506102509931534,1,0.49063216479008576,-1.9883427498022386,10.509098257617175,1,0.6225113940363727,-1.8698901492336177,10.742536110113605,1,0.7328277892301935,-1.993237887944037,10.512983380065943,1,0.5653257885624083,-2.004370682141715,10.495401275206998,1,0.7954790171842264,-1.7339812648636255,10.52837035085298,1,0.7020216094537902,-1.8160908413028491,10.44800714656483,1,0.7594416537387414,-1.8856982980921657,10.50299617113167,1,0.5562322539863662,-2.0283613019083835,10.610890291865182,1,0.5985563078107975,-1.935420117540461,10.760429936998458,1,0.7432048009888638,-1.8512458410097223,10.502417398096933,1,0.7151804251425509,-2.0328441418406245,10.507535975914566,1,0.8867097450276615,-1.8559196888644944,10.501230778461004,1,0.8057869745162728,-1.7968272981311832,10.409618071825589,1,0.6726176467258103,-1.801973303392519,10.437787935542765,1,0.5935861665289366,-2.1402346616872547,10.69934653365117,1,0.8421880106153272,-1.8941440569288692,10.491358494268635,1,0.6365045734710103,-1.934383667881027,10.43182844258087,1,0.6661991157915533,-1.811904995223846,10.677660486197528,1,0.553070883877189,-1.9931299328030467,10.459854344134524,1,0.655549966174146,-1.846378408669612,10.595157335342146,1,0.7930975673047703,-1.7888210159968798,10.618716103256933,1
63,2.968654489887797,-3.4729549447078227,9.198405680196789,1,2.967399512912819,-3.4011753543505683,9.057397972890968,1,3.0214074212961517,-3.454718284574504,8.884941716730536,1,2.8299238125497848,-3.5908705725510908,8.904186040579816,1,2.9978893671946336,-3.2578909294025937,8.810226559043087,1,2.8450831016454945,-3.470051510164867,9.052868648684207,1,3.04911977002598,-3.2938089285443057,9.108216819624431,1,2.8628018024548667,-3.414892051089154,9.081285325280566,1,2.904071585635965,-3.485448065038105,9.157969974250594,1,2.828518750069061,-3.559167413877901,8.976726807608692,1,2.8165992259139023,-3.3201762386983695,9.312896067990916,1,3.0410857228781762,-3.6013921987463466,9.00916746498652,1,2.711739782117586,-3.493461538925496,9.042636322383457,1,3.035807516741919,-3.388129776245356,9.057923002776471,1,2.9338238687174947,-3.4253681199216834,8.94449111965279,1,2.990898344981308,-3.416618771991802,8.937477222928077,1,2.7926379515768285,-3.4609974646601334,9.058608737215005,1,2.7530840309233446,-3.3746781066091565,9.084514602031705,1,2.8869358521592727,-3.2659477438888196,8.854062462694229,1,3.0001584339336933,-3.4082849998537923,9.089848651062683,1,3.0771137889461757,-3.37691221039572,9.054361554432694,1,2.9719605057129233,-3.409503433544515,8.924057532465723,1,2.94670308676561,-3.3588449324965968,9.033108505014429,1,2.69485753649046,-3.5384868920637174,9.00250264114949,1,3.0004809715270984,-3.2778977529957185,9.05260518419785,1,3.023955516225144,-3.4813478312091313,8.88571432666552,1,2.8981813833473455,-3.2766034237303545,9.064388213816015,1,2.914291795402728,-3.4646602561854074,8.966375082337931,1,2.8009166381968784,-3.308040302903524,9.166125567385597,1,2.955972570677844,-3.3992438085980172,9.173703379414585,1
64,0.08065326958957916,-1.4467685248702133,9.426174574336287,1,0.188477887228887,-1.346866943290541,9.243092441928948,1,0.10989921723050287,-1.495269560084834,9.267284979760136,1,-0.08989664535114475,-1.4018551634943197,9.521992822291846,1,0.051945466431987816,-1.2217495556259133,9.056306039562253,1,-0.11456352383084008,-1.4442535780094268,9.492501820203309,1,0.2208264861763494,-1.4770243925187247,9.305695227755246,1,0.051981372243007126,-1.371996387199531,9.286780684238499,1,0.07293026325409555,-1.6257389377014444,9.334346075843735,1,-0.04182782777253546,-1.687194555964189,9.328140630826065,1,-0.03208976912547321,-1.3377063124934747,9.41626177549202,1,0.06378903129773181,-1.508780394042849,9.271790436039305,1,-0.08941183423571814,-1.533247583197661,9.405945218174844,1,0.11934766352504826,-1.2974134501901597,9.345404725992491,1,0.11178055841503566,-1.4576716639651484,9.286867449720633,1,0.06587103151671833,-1.3403820219440177,9.164750665517941,1,-0.018483422909371886,-1.4875275574467581,9.44648637523447,1,0.046151277797443296,-1.5016604387696681,9.44675281678586,1,0.04798955678006327,-1.4643469403649636,9.196519725541421,1,0.09276576917849032,-1.5292919536467469,9.287036872269379,1,0.15282182358218982,-1.5888889089879779,9.317049509007616,1,0.06490834020971119,-1.3195168925866791,9.191391335322097,1,0.013269255164303977,-1.4255305540408583,9.31878098703536,1,-0.10417560617626148,-1.6035569355482795,9.362752332953967,1,0.08407642812565295,-1.3921176485832174,9.252940054526665,1,0.10096804764506213,-1.5198670066255708,9.239105850732221,1,-0.0057938795108269225,-1.2884377633225823,9.350316135950077,1,-0.08862914019624343,-1.5160575782444126,9.157654448966275,1,-0.02496457393741156,-1.345305598971816,9.388432718136109,1,0.12573205088393669,-1.4237465323220095,9.300747001694647,1
65,-1.1869104721390407,-2.5365641116141693,9.10885297475289,1,-1.1973832425688526,-2.49233209484462,8.917748259269283,1,-1.2495174266477584,-2.5765249014607092,9.032722613560244,1,-1.4035246338645577,-2.563206156358269,9.03661678978406,1,-1.143911361796607,-2.4448605702321364,8.735642229792205,1,-1.27725155359937,-2.5993007329139752,9.129894739898194,1,-1.3167045813608562,-2.6405364873156345,9.069499390075018,1,-1.4866568567982694,-2.56678099093833,9.026367983897073,1,-1.291372570282597,-2.8000277059286747,9.000794161654875,1,-1.4253423228735027,-2.6191940909296276,8.931475712654647,1,-1.3191955384204088,-2.4691516886795033,9.118022799955492,1,-1.237905831072736,-2.7008947970667596,8.973677133647483,1,-1.4420566897211444,-2.7734345634399022,8.994726003458634,1,-1.2872811978558523,-2.5429137344890367,9.10450840707893,1,-1.2076687901317822,-2.4851684757341137,8.896517406944426,1,-1.176969706689972,-2.6608705948424585,8.86438807741205,1,-1.4175128250850775,-2.672455432829549,9.11520070541113,1,-1.3727862054272784,-2.5582758102540732,9.099535658316055,1,-1.3172236785531295,-2.7230858899439165,8.970145451607754,1,-1.29390017776706,-2.5672473114550924,8.903069540483601,1,-1.16806965438274,-2.5673498877477567,8.867163667226452,1,-1.364383596961615,-2.6456761256490307,8.826088428086416,1,-1.2889595282981934,-2.6057560203357064,8.847685723745181,1,-1.5141565770665797,-2.9126639687550098,9.092087378563036,1,-1.2005774651400107,-2.651748006647148,8.88897877148991,1,-1.2516774712664096,-2.60222217012076,8.891188088739764,1,-1.2779995381746079,-2.5264882089092153,9.00438730785435,1,-1.3272809651989355,-2.6589949876480214,8.830646904860815,1,-1.4297595058868553,-2.563937213609698,9.000386978860913,1,-1.2131151740622426,-2.5911237000255363,9.093129343590737,1
66,1.7522516906474814,-0.21206173281360705,9.296232526952897,1,1.6980048321749108,-0.07665929443768754,9.266487483169621,1,1.5922687937974664,-0.36826854052692437,9.083206459842437,1,1.600333058356469,-0.2154288995293138,9.277216635062004,1,1.7386521544578255,0.09718823979472652,9.123760385514375,1,1.6390317310355058,-0.30352654216030256,9.314825089224344,1,1.8772913638128161,-0.1224647552986558,9.28253047904341,1,1.655434426631801,-0.19925082473937591,9.215560753862295,1,1.7175307054620557,-0.3545036749400616,9.180434947499617,1,1.6739218689482918,-0.21630966872934793,9.294316843907787,1,1.6162691680256058,-0.07942342150974205,9.305909461685392,1,1.7875644345295458,-0.2655771272795637,9.195981546869804,1,1.5239830543919413,-0.2845985721071099,9.20074855603325,1,1.8455518279769256,-0.04113228742304535,9.105507022041472,1,1.629188282414057,-0.19804484257701693,9.034747071864972,1,1.6864240329235798,-0.19804172685823584,9.104800388674628,1,1.462848535259669,-0.20608863595626858,9.228954058133315,1,1.6277285777706831,-0.2052101251550613,9.318495126541254,1,1.6160268622066631,-0.14750742392769417,9.153493231794627,1,1.7877431587605594,-0.34839338539673864,9.09085150138285,1,1.814444204226949,-0.1474146039568011,9.177180563430516,1,1.7533636540366595,-0.04410724645241383,9.138570346609793,1,1.579298771062856,0.005219831471217434,9.229211923622431,1,1.473519296707376,-0.27086571336080767,9.2687465285702,1,1.8110997025224838,-0.12480779281171969,9.197902220725279,1,1.8019504124210477,-0.29680611201650525,9.047596970038004,1,1.6072371234111178,-0.19684907866658685,9.215173477367085,1,1.621346867654813,-0.2700900041345532,9.18790777955571,1,1.615728098679383,-0.2062208088167451,9.250482430586658,1,1.7455729740360304,-0.20499356972767419,9.200700385433235,1
